{
  "participant_id": "P_1751511685551_f4561x7rb",
  "session_id": "session_1751512041789",
  "experiment_version": "1.0.0",
  "start_time": "1970-01-01T00:00:03.353Z",
  "end_time": "2025-07-03T03:07:21.789Z",
  "total_duration_sec": 355.978,
  "completion_status": "abandoned",
  "device_info": {
    "browser": "Mozilla/5.0 (Windows NT 10.0; Win64; x64) AppleWebKit/537.36 (KHTML, like Gecko) Chrome/138.0.0.0 Safari/537.36 Edg/138.0.0.0",
    "os": "Win32",
    "screen_resolution": [
      1440,
      900
    ],
    "window_size": [
      881,
      896
    ]
  },
  "experimental_condition": "high-prior",
  "tasks_completed": [
    "baba_game",
    "questionnaire"
  ],
  "baba_game_data": [
    {
      "trial_type": "baba-game",
      "participant_id": "P_1751511685551_f4561x7rb",
      "condition_type": "high-prior",
      "level_id": "tutorial_1",
      "level_name": "Who are you?",
      "chapter_name": "tutorial",
      "success": true,
      "completion_reason": "completed",
      "total_time": 2.455,
      "move_count": 6,
      "undo_count": 0,
      "pause_count": 0,
      "remaining_time": 477.544,
      "operation_count": 12,
      "trial_index": 6,
      "plugin_version": "1.0.0",
      "time_elapsed": 14345,
      "prolific_pid": null,
      "study_id": null,
      "session_id": null
    },
    {
      "trial_type": "baba-game",
      "participant_id": "P_1751511685551_f4561x7rb",
      "condition_type": "high-prior",
      "level_id": "tutorial_2",
      "level_name": "Rule Maker",
      "chapter_name": "tutorial",
      "success": true,
      "completion_reason": "completed",
      "total_time": 4.899,
      "move_count": 22,
      "undo_count": 0,
      "pause_count": 0,
      "remaining_time": 475.101,
      "operation_count": 44,
      "trial_index": 11,
      "plugin_version": "1.0.0",
      "time_elapsed": 27120,
      "prolific_pid": null,
      "study_id": null,
      "session_id": null
    },
    {
      "trial_type": "baba-game",
      "participant_id": "P_1751511685551_f4561x7rb",
      "condition_type": "high-prior",
      "level_id": "journey_environment",
      "level_name": "Grass Yard",
      "chapter_name": "journey",
      "success": true,
      "completion_reason": "completed",
      "total_time": 7.021,
      "move_count": 33,
      "undo_count": 0,
      "pause_count": 0,
      "remaining_time": 472.978,
      "operation_count": 68,
      "trial_index": 17,
      "plugin_version": "1.0.0",
      "time_elapsed": 42036,
      "prolific_pid": null,
      "study_id": null,
      "session_id": null
    },
    {
      "trial_type": "baba-game",
      "participant_id": "P_1751511685551_f4561x7rb",
      "condition_type": "high-prior",
      "level_id": "journey_understandproperty",
      "level_name": "Bridge Building",
      "chapter_name": "journey",
      "success": true,
      "completion_reason": "completed",
      "total_time": 4.772,
      "move_count": 24,
      "undo_count": 0,
      "pause_count": 0,
      "remaining_time": 475.227,
      "operation_count": 48,
      "trial_index": 22,
      "plugin_version": "1.0.0",
      "time_elapsed": 54254,
      "prolific_pid": null,
      "study_id": null,
      "session_id": null
    },
    {
      "trial_type": "baba-game",
      "participant_id": "P_1751511685551_f4561x7rb",
      "condition_type": "high-prior",
      "level_id": "journey_switchidentity",
      "level_name": "Locked in",
      "chapter_name": "journey",
      "success": true,
      "completion_reason": "completed",
      "total_time": 10.599,
      "move_count": 44,
      "undo_count": 0,
      "pause_count": 0,
      "remaining_time": 469.4,
      "operation_count": 88,
      "trial_index": 27,
      "plugin_version": "1.0.0",
      "time_elapsed": 71285,
      "prolific_pid": null,
      "study_id": null,
      "session_id": null
    },
    {
      "trial_type": "baba-game",
      "participant_id": "P_1751511685551_f4561x7rb",
      "condition_type": "high-prior",
      "level_id": "journey_break",
      "level_name": "Out of Reach",
      "chapter_name": "journey",
      "success": true,
      "completion_reason": "completed",
      "total_time": 6.477,
      "move_count": 31,
      "undo_count": 0,
      "pause_count": 0,
      "remaining_time": 473.52,
      "operation_count": 62,
      "trial_index": 32,
      "plugin_version": "1.0.0",
      "time_elapsed": 84980,
      "prolific_pid": null,
      "study_id": null,
      "session_id": null
    },
    {
      "trial_type": "baba-game",
      "participant_id": "P_1751511685551_f4561x7rb",
      "condition_type": "high-prior",
      "level_id": "journey_grammar",
      "level_name": "Feeling Dangerous",
      "chapter_name": "journey",
      "success": true,
      "completion_reason": "completed",
      "total_time": 5.379,
      "move_count": 26,
      "undo_count": 0,
      "pause_count": 0,
      "remaining_time": 474.62,
      "operation_count": 52,
      "trial_index": 37,
      "plugin_version": "1.0.0",
      "time_elapsed": 97550,
      "prolific_pid": null,
      "study_id": null,
      "session_id": null
    },
    {
      "trial_type": "baba-game",
      "participant_id": "P_1751511685551_f4561x7rb",
      "condition_type": "high-prior",
      "level_id": "journey_combination",
      "level_name": "Novice Locksmith",
      "chapter_name": "journey",
      "success": true,
      "completion_reason": "completed",
      "total_time": 5.947,
      "move_count": 29,
      "undo_count": 0,
      "pause_count": 0,
      "remaining_time": 474.052,
      "operation_count": 58,
      "trial_index": 42,
      "plugin_version": "1.0.0",
      "time_elapsed": 110958,
      "prolific_pid": null,
      "study_id": null,
      "session_id": null
    }
  ],
  "digit_span_data": {
    "forward": [],
    "backward": []
  },
  "dsst_data": [],
  "verbal_fluency_data": [],
  "aut_data": [],
  "questionnaire_data": [
    {
      "rt": 3351,
      "stimulus": "\n                        <h1 style=\"color: white;\">Experiment will be conducted in fullscreen mode</h1>\n                        <div style=\"color: white; max-width: 800px; margin: 0 auto; font-size: 18px; line-height: 1.6; text-align: left;\">\n                            <p>To ensure the validity of experimental data, this experiment must be conducted in <strong>fullscreen mode</strong>.</p>\n                            <p>Please note:</p>\n                            <ul style=\"text-align: left; padding-left: 20px;\">\n                                <li>After clicking the \"Enter Fullscreen\" button, the experiment will automatically switch to fullscreen mode</li>\n                                <li>Please do not exit fullscreen mode during the experiment</li>\n                                <li>Exiting fullscreen will be considered as <strong>exiting the experiment</strong></li>\n                                <li>Ensure your device has sufficient battery and close any possible notification distractions</li>\n                            </ul>\n                            <p class=\"fullscreen-warning\">Important: Please maintain fullscreen status throughout the entire experiment!</p>\n                        </div>\n                    ",
      "response": 0,
      "trial_type": "html-button-response",
      "trial_index": 0,
      "plugin_version": "2.1.0",
      "time_elapsed": 3353,
      "prolific_pid": null,
      "study_id": null,
      "session_id": null
    },
    {
      "success": true,
      "rt": 1298,
      "trial_type": "fullscreen",
      "trial_index": 1,
      "plugin_version": "2.1.0",
      "time_elapsed": 5919,
      "prolific_pid": null,
      "study_id": null,
      "session_id": null
    },
    {
      "trial_type": "html-button-response",
      "participant_id": "P_1751511685551_f4561x7rb",
      "rt": 772,
      "stimulus": "\n                <h1 style=\"color: white;\">Welcome to the Psychology Experiment</h1>\n                <div style=\"color: white; max-width: 800px; margin: 0 auto; font-size: 18px; line-height: 1.6; text-align: left;\">\n                    <p>Thank you for participating!</p>\n                    <br>\n                    <p>This study explores your <strong>problem-solving ability</strong> and <strong>some cognitive abilities</strong>.</p>\n                    <br>\n                    <p>You will complete <strong>three parts</strong>:</p>\n                    <p>1. A short puzzle game</p>\n                    <p>2. Several cognitive tests (e.g., digit span)</p>\n                    <p>3. Some brief questionnaires</p>\n                    <br>\n                    <p>The experiment will take about <strong>45-60 minutes</strong>.</p>\n                    <p>Please follow the instructions shown before each part.</p>\n                </div>\n            ",
      "response": 0,
      "trial_index": 2,
      "plugin_version": "2.1.0",
      "time_elapsed": 6955,
      "prolific_pid": null,
      "study_id": null,
      "session_id": null
    },
    {
      "trial_type": "baba-instructions",
      "participant_id": "P_1751511685551_f4561x7rb",
      "instruction_time": 0.705,
      "trial_index": 3,
      "plugin_version": "1.0.0",
      "time_elapsed": 7925,
      "prolific_pid": null,
      "study_id": null,
      "session_id": null
    },
    {
      "trial_type": "chapter-select",
      "participant_id": "P_1751511685551_f4561x7rb",
      "selection_type": "chapter",
      "selected_chapter": 0,
      "chapter_key": "tutorial",
      "chapter_name": "Tutorial",
      "selection_time": 0.942,
      "trial_index": 4,
      "plugin_version": "1.0.0",
      "time_elapsed": 9125,
      "prolific_pid": null,
      "study_id": null,
      "session_id": null
    },
    {
      "trial_type": "chapter-select",
      "participant_id": "P_1751511685551_f4561x7rb",
      "selection_type": "level",
      "selected_level": 0,
      "level_data": {
        "level_id": "tutorial_1",
        "name": "Who are you?",
        "grid_size": [
          13,
          9
        ],
        "elements": [
          {
            "type": "TEXT_PUMPKIN",
            "pos": [
              2,
              1
            ],
            "properties": [
              "text"
            ]
          },
          {
            "type": "TEXT_IS",
            "pos": [
              3,
              1
            ],
            "properties": [
              "text"
            ]
          },
          {
            "type": "TEXT_YOU",
            "pos": [
              4,
              1
            ],
            "properties": [
              "text"
            ]
          },
          {
            "type": "TEXT_CLOUD",
            "pos": [
              9,
              1
            ],
            "properties": [
              "text"
            ]
          },
          {
            "type": "TEXT_IS",
            "pos": [
              10,
              1
            ],
            "properties": [
              "text"
            ]
          },
          {
            "type": "TEXT_STOP",
            "pos": [
              11,
              1
            ],
            "properties": [
              "text"
            ]
          },
          {
            "type": "TEXT_DICE",
            "pos": [
              2,
              7
            ],
            "properties": [
              "text"
            ]
          },
          {
            "type": "TEXT_IS",
            "pos": [
              3,
              7
            ],
            "properties": [
              "text"
            ]
          },
          {
            "type": "TEXT_PUSH",
            "pos": [
              4,
              7
            ],
            "properties": [
              "text"
            ]
          },
          {
            "type": "TEXT_SUN",
            "pos": [
              9,
              7
            ],
            "properties": [
              "text"
            ]
          },
          {
            "type": "TEXT_IS",
            "pos": [
              10,
              7
            ],
            "properties": [
              "text"
            ]
          },
          {
            "type": "TEXT_WIN",
            "pos": [
              11,
              7
            ],
            "properties": [
              "text"
            ]
          },
          {
            "type": "PUMPKIN",
            "pos": [
              3,
              4
            ],
            "properties": [
              "you"
            ]
          },
          {
            "type": "SUN",
            "pos": [
              9,
              4
            ],
            "properties": [
              "win"
            ]
          },
          {
            "type": "DICE",
            "pos": [
              6,
              3
            ],
            "properties": [
              "push"
            ]
          },
          {
            "type": "DICE",
            "pos": [
              6,
              4
            ],
            "properties": [
              "push"
            ]
          },
          {
            "type": "DICE",
            "pos": [
              6,
              5
            ],
            "properties": [
              "push"
            ]
          },
          {
            "type": "CLOUD",
            "pos": [
              2,
              2
            ],
            "properties": [
              "stop"
            ]
          },
          {
            "type": "CLOUD",
            "pos": [
              3,
              2
            ],
            "properties": [
              "stop"
            ]
          },
          {
            "type": "CLOUD",
            "pos": [
              4,
              2
            ],
            "properties": [
              "stop"
            ]
          },
          {
            "type": "CLOUD",
            "pos": [
              5,
              2
            ],
            "properties": [
              "stop"
            ]
          },
          {
            "type": "CLOUD",
            "pos": [
              6,
              2
            ],
            "properties": [
              "stop"
            ]
          },
          {
            "type": "CLOUD",
            "pos": [
              7,
              2
            ],
            "properties": [
              "stop"
            ]
          },
          {
            "type": "CLOUD",
            "pos": [
              8,
              2
            ],
            "properties": [
              "stop"
            ]
          },
          {
            "type": "CLOUD",
            "pos": [
              9,
              2
            ],
            "properties": [
              "stop"
            ]
          },
          {
            "type": "CLOUD",
            "pos": [
              10,
              2
            ],
            "properties": [
              "stop"
            ]
          },
          {
            "type": "CLOUD",
            "pos": [
              2,
              6
            ],
            "properties": [
              "stop"
            ]
          },
          {
            "type": "CLOUD",
            "pos": [
              3,
              6
            ],
            "properties": [
              "stop"
            ]
          },
          {
            "type": "CLOUD",
            "pos": [
              4,
              6
            ],
            "properties": [
              "stop"
            ]
          },
          {
            "type": "CLOUD",
            "pos": [
              5,
              6
            ],
            "properties": [
              "stop"
            ]
          },
          {
            "type": "CLOUD",
            "pos": [
              6,
              6
            ],
            "properties": [
              "stop"
            ]
          },
          {
            "type": "CLOUD",
            "pos": [
              7,
              6
            ],
            "properties": [
              "stop"
            ]
          },
          {
            "type": "CLOUD",
            "pos": [
              8,
              6
            ],
            "properties": [
              "stop"
            ]
          },
          {
            "type": "CLOUD",
            "pos": [
              9,
              6
            ],
            "properties": [
              "stop"
            ]
          },
          {
            "type": "CLOUD",
            "pos": [
              10,
              6
            ],
            "properties": [
              "stop"
            ]
          }
        ]
      },
      "level_name": "Who are you?",
      "selection_time": 0.532,
      "trial_index": 5,
      "plugin_version": "1.0.0",
      "time_elapsed": 9916,
      "prolific_pid": null,
      "study_id": null,
      "session_id": null
    },
    {
      "trial_type": "baba-game",
      "participant_id": "P_1751511685551_f4561x7rb",
      "condition_type": "high-prior",
      "level_id": "tutorial_1",
      "level_name": "Who are you?",
      "chapter_name": "tutorial",
      "success": true,
      "completion_reason": "completed",
      "total_time": 2.455,
      "move_count": 6,
      "undo_count": 0,
      "pause_count": 0,
      "remaining_time": 477.544,
      "operation_count": 12,
      "trial_index": 6,
      "plugin_version": "1.0.0",
      "time_elapsed": 14345,
      "prolific_pid": null,
      "study_id": null,
      "session_id": null
    },
    {
      "trial_type": "rating-scale",
      "participant_id": "P_1751511685551_f4561x7rb",
      "rating_type": "difficulty",
      "rating_value": 4,
      "level_name": "Unknown Level",
      "question": "According to your experience, how difficult was last level?",
      "scale_min": 0,
      "scale_max": 10,
      "response_time": 1.951,
      "trial_index": 7,
      "plugin_version": "1.0.0",
      "time_elapsed": 16562,
      "prolific_pid": null,
      "study_id": null,
      "session_id": null
    },
    {
      "trial_type": "rating-scale",
      "participant_id": "P_1751511685551_f4561x7rb",
      "rating_type": "creativity",
      "rating_value": 4,
      "level_name": "Unknown Level",
      "question": "According to your experience, how creative do you think you were in last level?",
      "scale_min": 0,
      "scale_max": 10,
      "response_time": 1.409,
      "trial_index": 8,
      "plugin_version": "1.0.0",
      "time_elapsed": 18233,
      "prolific_pid": null,
      "study_id": null,
      "session_id": null
    },
    {
      "trial_type": "feedback-input",
      "participant_id": "P_1751511685551_f4561x7rb",
      "feedback": "",
      "level_name": "Unknown Level",
      "response_time": 0.641,
      "trial_index": 9,
      "plugin_version": "1.0.0",
      "time_elapsed": 19141,
      "prolific_pid": null,
      "study_id": null,
      "session_id": null
    },
    {
      "trial_type": "chapter-select",
      "participant_id": "P_1751511685551_f4561x7rb",
      "selection_type": "level",
      "selected_level": 1,
      "level_data": {
        "level_id": "tutorial_2",
        "name": "Rule Maker",
        "grid_size": [
          13,
          9
        ],
        "elements": [
          {
            "type": "TEXT_PUMPKIN",
            "pos": [
              2,
              1
            ],
            "properties": [
              "text"
            ]
          },
          {
            "type": "TEXT_IS",
            "pos": [
              3,
              1
            ],
            "properties": [
              "text"
            ]
          },
          {
            "type": "TEXT_YOU",
            "pos": [
              4,
              1
            ],
            "properties": [
              "text"
            ]
          },
          {
            "type": "TEXT_CLOUD",
            "pos": [
              9,
              1
            ],
            "properties": [
              "text"
            ]
          },
          {
            "type": "TEXT_IS",
            "pos": [
              10,
              1
            ],
            "properties": [
              "text"
            ]
          },
          {
            "type": "TEXT_STOP",
            "pos": [
              11,
              1
            ],
            "properties": [
              "text"
            ]
          },
          {
            "type": "TEXT_DICE",
            "pos": [
              3,
              7
            ],
            "properties": [
              "text"
            ]
          },
          {
            "type": "TEXT_IS",
            "pos": [
              6,
              7
            ],
            "properties": [
              "text"
            ]
          },
          {
            "type": "TEXT_WIN",
            "pos": [
              8,
              7
            ],
            "properties": [
              "text"
            ]
          },
          {
            "type": "TEXT_SUN",
            "pos": [
              10,
              7
            ],
            "properties": [
              "text"
            ]
          },
          {
            "type": "PUMPKIN",
            "pos": [
              4,
              4
            ],
            "properties": [
              "you"
            ]
          },
          {
            "type": "DICE",
            "pos": [
              7,
              3
            ],
            "properties": []
          },
          {
            "type": "DICE",
            "pos": [
              7,
              4
            ],
            "properties": []
          },
          {
            "type": "DICE",
            "pos": [
              7,
              5
            ],
            "properties": []
          },
          {
            "type": "SUN",
            "pos": [
              10,
              4
            ],
            "properties": []
          },
          {
            "type": "CLOUD",
            "pos": [
              2,
              2
            ],
            "properties": [
              "stop"
            ]
          },
          {
            "type": "CLOUD",
            "pos": [
              3,
              2
            ],
            "properties": [
              "stop"
            ]
          },
          {
            "type": "CLOUD",
            "pos": [
              4,
              2
            ],
            "properties": [
              "stop"
            ]
          },
          {
            "type": "CLOUD",
            "pos": [
              5,
              2
            ],
            "properties": [
              "stop"
            ]
          },
          {
            "type": "CLOUD",
            "pos": [
              6,
              2
            ],
            "properties": [
              "stop"
            ]
          },
          {
            "type": "CLOUD",
            "pos": [
              7,
              2
            ],
            "properties": [
              "stop"
            ]
          },
          {
            "type": "CLOUD",
            "pos": [
              8,
              2
            ],
            "properties": [
              "stop"
            ]
          },
          {
            "type": "CLOUD",
            "pos": [
              9,
              2
            ],
            "properties": [
              "stop"
            ]
          },
          {
            "type": "CLOUD",
            "pos": [
              10,
              2
            ],
            "properties": [
              "stop"
            ]
          },
          {
            "type": "CLOUD",
            "pos": [
              2,
              6
            ],
            "properties": [
              "stop"
            ]
          },
          {
            "type": "CLOUD",
            "pos": [
              3,
              6
            ],
            "properties": [
              "stop"
            ]
          },
          {
            "type": "CLOUD",
            "pos": [
              4,
              6
            ],
            "properties": [
              "stop"
            ]
          },
          {
            "type": "CLOUD",
            "pos": [
              5,
              6
            ],
            "properties": [
              "stop"
            ]
          },
          {
            "type": "CLOUD",
            "pos": [
              6,
              6
            ],
            "properties": [
              "stop"
            ]
          },
          {
            "type": "CLOUD",
            "pos": [
              7,
              6
            ],
            "properties": [
              "stop"
            ]
          },
          {
            "type": "CLOUD",
            "pos": [
              8,
              6
            ],
            "properties": [
              "stop"
            ]
          },
          {
            "type": "CLOUD",
            "pos": [
              9,
              6
            ],
            "properties": [
              "stop"
            ]
          },
          {
            "type": "CLOUD",
            "pos": [
              10,
              6
            ],
            "properties": [
              "stop"
            ]
          }
        ]
      },
      "level_name": "Rule Maker",
      "selection_time": 0.821,
      "trial_index": 10,
      "plugin_version": "1.0.0",
      "time_elapsed": 20227,
      "prolific_pid": null,
      "study_id": null,
      "session_id": null
    },
    {
      "trial_type": "baba-game",
      "participant_id": "P_1751511685551_f4561x7rb",
      "condition_type": "high-prior",
      "level_id": "tutorial_2",
      "level_name": "Rule Maker",
      "chapter_name": "tutorial",
      "success": true,
      "completion_reason": "completed",
      "total_time": 4.899,
      "move_count": 22,
      "undo_count": 0,
      "pause_count": 0,
      "remaining_time": 475.101,
      "operation_count": 44,
      "trial_index": 11,
      "plugin_version": "1.0.0",
      "time_elapsed": 27120,
      "prolific_pid": null,
      "study_id": null,
      "session_id": null
    },
    {
      "trial_type": "rating-scale",
      "participant_id": "P_1751511685551_f4561x7rb",
      "rating_type": "difficulty",
      "rating_value": 5,
      "level_name": "Unknown Level",
      "question": "According to your experience, how difficult was last level?",
      "scale_min": 0,
      "scale_max": 10,
      "response_time": 1.786,
      "trial_index": 12,
      "plugin_version": "1.0.0",
      "time_elapsed": 29170,
      "prolific_pid": null,
      "study_id": null,
      "session_id": null
    },
    {
      "trial_type": "rating-scale",
      "participant_id": "P_1751511685551_f4561x7rb",
      "rating_type": "creativity",
      "rating_value": 5,
      "level_name": "Unknown Level",
      "question": "According to your experience, how creative do you think you were in last level?",
      "scale_min": 0,
      "scale_max": 10,
      "response_time": 1.362,
      "trial_index": 13,
      "plugin_version": "1.0.0",
      "time_elapsed": 30787,
      "prolific_pid": null,
      "study_id": null,
      "session_id": null
    },
    {
      "trial_type": "feedback-input",
      "participant_id": "P_1751511685551_f4561x7rb",
      "feedback": "",
      "level_name": "Unknown Level",
      "response_time": 0.449,
      "trial_index": 14,
      "plugin_version": "1.0.0",
      "time_elapsed": 31492,
      "prolific_pid": null,
      "study_id": null,
      "session_id": null
    },
    {
      "trial_type": "chapter-select",
      "participant_id": "P_1751511685551_f4561x7rb",
      "selection_type": "chapter",
      "selected_chapter": 1,
      "chapter_key": "journey",
      "chapter_name": "Journey",
      "selection_time": 0.456,
      "trial_index": 15,
      "plugin_version": "1.0.0",
      "time_elapsed": 32214,
      "prolific_pid": null,
      "study_id": null,
      "session_id": null
    },
    {
      "trial_type": "chapter-select",
      "participant_id": "P_1751511685551_f4561x7rb",
      "selection_type": "level",
      "selected_level": 0,
      "level_data": {
        "level_id": "journey_environment",
        "name": "Grass Yard",
        "grid_size": [
          14,
          12
        ],
        "required_objects": [
          "you_obj",
          "win_obj",
          "stop_obj"
        ],
        "elements": [
          {
            "type": "TEXT_PUMPKIN",
            "pos": [
              0,
              0
            ],
            "properties": [
              "text"
            ]
          },
          {
            "type": "TEXT_IS",
            "pos": [
              1,
              0
            ],
            "properties": [
              "text"
            ]
          },
          {
            "type": "TEXT_YOU",
            "pos": [
              2,
              0
            ],
            "properties": [
              "text"
            ]
          },
          {
            "type": "TEXT_DICE",
            "pos": [
              0,
              1
            ],
            "properties": [
              "text"
            ]
          },
          {
            "type": "TEXT_IS",
            "pos": [
              1,
              1
            ],
            "properties": [
              "text"
            ]
          },
          {
            "type": "TEXT_STOP",
            "pos": [
              2,
              1
            ],
            "properties": [
              "text"
            ]
          },
          {
            "type": "TEXT_SUN",
            "pos": [
              6,
              7
            ],
            "properties": [
              "text"
            ]
          },
          {
            "type": "TEXT_IS",
            "pos": [
              8,
              10
            ],
            "properties": [
              "text"
            ]
          },
          {
            "type": "TEXT_WIN",
            "pos": [
              9,
              7
            ],
            "properties": [
              "text"
            ]
          },
          {
            "type": "POOL",
            "pos": [
              2,
              2
            ]
          },
          {
            "type": "POOL",
            "pos": [
              2,
              3
            ]
          },
          {
            "type": "POOL",
            "pos": [
              2,
              4
            ]
          },
          {
            "type": "POOL",
            "pos": [
              2,
              5
            ]
          },
          {
            "type": "POOL",
            "pos": [
              2,
              6
            ]
          },
          {
            "type": "POOL",
            "pos": [
              2,
              7
            ]
          },
          {
            "type": "POOL",
            "pos": [
              2,
              8
            ]
          },
          {
            "type": "POOL",
            "pos": [
              2,
              9
            ]
          },
          {
            "type": "POOL",
            "pos": [
              3,
              2
            ]
          },
          {
            "type": "POOL",
            "pos": [
              4,
              2
            ]
          },
          {
            "type": "POOL",
            "pos": [
              5,
              2
            ]
          },
          {
            "type": "POOL",
            "pos": [
              6,
              2
            ]
          },
          {
            "type": "POOL",
            "pos": [
              7,
              2
            ]
          },
          {
            "type": "POOL",
            "pos": [
              8,
              2
            ]
          },
          {
            "type": "POOL",
            "pos": [
              9,
              2
            ]
          },
          {
            "type": "POOL",
            "pos": [
              10,
              2
            ]
          },
          {
            "type": "POOL",
            "pos": [
              11,
              2
            ]
          },
          {
            "type": "POOL",
            "pos": [
              11,
              3
            ]
          },
          {
            "type": "POOL",
            "pos": [
              11,
              4
            ]
          },
          {
            "type": "POOL",
            "pos": [
              11,
              5
            ]
          },
          {
            "type": "POOL",
            "pos": [
              11,
              6
            ]
          },
          {
            "type": "POOL",
            "pos": [
              11,
              7
            ]
          },
          {
            "type": "POOL",
            "pos": [
              11,
              8
            ]
          },
          {
            "type": "POOL",
            "pos": [
              11,
              9
            ]
          },
          {
            "type": "POOL",
            "pos": [
              3,
              9
            ]
          },
          {
            "type": "POOL",
            "pos": [
              4,
              9
            ]
          },
          {
            "type": "POOL",
            "pos": [
              5,
              9
            ]
          },
          {
            "type": "POOL",
            "pos": [
              6,
              9
            ]
          },
          {
            "type": "POOL",
            "pos": [
              7,
              9
            ]
          },
          {
            "type": "POOL",
            "pos": [
              8,
              9
            ]
          },
          {
            "type": "POOL",
            "pos": [
              9,
              9
            ]
          },
          {
            "type": "POOL",
            "pos": [
              10,
              9
            ]
          },
          {
            "type": "PUMPKIN",
            "pos": [
              3,
              7
            ],
            "properties": [
              "you"
            ]
          },
          {
            "type": "SUN",
            "pos": [
              9,
              4
            ],
            "properties": []
          },
          {
            "type": "DICE",
            "pos": [
              3,
              3
            ],
            "properties": [
              "stop"
            ]
          },
          {
            "type": "DICE",
            "pos": [
              3,
              8
            ],
            "properties": [
              "stop"
            ]
          },
          {
            "type": "DICE",
            "pos": [
              5,
              8
            ],
            "properties": [
              "stop"
            ]
          },
          {
            "type": "DICE",
            "pos": [
              6,
              6
            ],
            "properties": [
              "stop"
            ]
          },
          {
            "type": "DICE",
            "pos": [
              7,
              5
            ],
            "properties": [
              "stop"
            ]
          },
          {
            "type": "DICE",
            "pos": [
              8,
              8
            ],
            "properties": [
              "stop"
            ]
          },
          {
            "type": "DICE",
            "pos": [
              9,
              5
            ],
            "properties": [
              "stop"
            ]
          },
          {
            "type": "DICE",
            "pos": [
              10,
              7
            ],
            "properties": [
              "stop"
            ]
          }
        ],
        "initial_objects": [
          {
            "type": "TEXT_PUMPKIN",
            "pos": [
              0,
              0
            ]
          },
          {
            "type": "TEXT_IS",
            "pos": [
              1,
              0
            ]
          },
          {
            "type": "TEXT_YOU",
            "pos": [
              2,
              0
            ]
          },
          {
            "type": "TEXT_DICE",
            "pos": [
              0,
              1
            ]
          },
          {
            "type": "TEXT_IS",
            "pos": [
              1,
              1
            ]
          },
          {
            "type": "TEXT_STOP",
            "pos": [
              2,
              1
            ]
          },
          {
            "type": "TEXT_SUN",
            "pos": [
              6,
              7
            ]
          },
          {
            "type": "TEXT_IS",
            "pos": [
              8,
              10
            ]
          },
          {
            "type": "TEXT_WIN",
            "pos": [
              9,
              7
            ]
          },
          {
            "type": "POOL",
            "pos": [
              2,
              2
            ]
          },
          {
            "type": "POOL",
            "pos": [
              2,
              3
            ]
          },
          {
            "type": "POOL",
            "pos": [
              2,
              4
            ]
          },
          {
            "type": "POOL",
            "pos": [
              2,
              5
            ]
          },
          {
            "type": "POOL",
            "pos": [
              2,
              6
            ]
          },
          {
            "type": "POOL",
            "pos": [
              2,
              7
            ]
          },
          {
            "type": "POOL",
            "pos": [
              2,
              8
            ]
          },
          {
            "type": "POOL",
            "pos": [
              2,
              9
            ]
          },
          {
            "type": "POOL",
            "pos": [
              3,
              2
            ]
          },
          {
            "type": "POOL",
            "pos": [
              4,
              2
            ]
          },
          {
            "type": "POOL",
            "pos": [
              5,
              2
            ]
          },
          {
            "type": "POOL",
            "pos": [
              6,
              2
            ]
          },
          {
            "type": "POOL",
            "pos": [
              7,
              2
            ]
          },
          {
            "type": "POOL",
            "pos": [
              8,
              2
            ]
          },
          {
            "type": "POOL",
            "pos": [
              9,
              2
            ]
          },
          {
            "type": "POOL",
            "pos": [
              10,
              2
            ]
          },
          {
            "type": "POOL",
            "pos": [
              11,
              2
            ]
          },
          {
            "type": "POOL",
            "pos": [
              11,
              3
            ]
          },
          {
            "type": "POOL",
            "pos": [
              11,
              4
            ]
          },
          {
            "type": "POOL",
            "pos": [
              11,
              5
            ]
          },
          {
            "type": "POOL",
            "pos": [
              11,
              6
            ]
          },
          {
            "type": "POOL",
            "pos": [
              11,
              7
            ]
          },
          {
            "type": "POOL",
            "pos": [
              11,
              8
            ]
          },
          {
            "type": "POOL",
            "pos": [
              11,
              9
            ]
          },
          {
            "type": "POOL",
            "pos": [
              3,
              9
            ]
          },
          {
            "type": "POOL",
            "pos": [
              4,
              9
            ]
          },
          {
            "type": "POOL",
            "pos": [
              5,
              9
            ]
          },
          {
            "type": "POOL",
            "pos": [
              6,
              9
            ]
          },
          {
            "type": "POOL",
            "pos": [
              7,
              9
            ]
          },
          {
            "type": "POOL",
            "pos": [
              8,
              9
            ]
          },
          {
            "type": "POOL",
            "pos": [
              9,
              9
            ]
          },
          {
            "type": "POOL",
            "pos": [
              10,
              9
            ]
          },
          {
            "type": "PUMPKIN",
            "pos": [
              3,
              7
            ]
          },
          {
            "type": "SUN",
            "pos": [
              9,
              4
            ]
          },
          {
            "type": "DICE",
            "pos": [
              3,
              3
            ]
          },
          {
            "type": "DICE",
            "pos": [
              3,
              8
            ]
          },
          {
            "type": "DICE",
            "pos": [
              5,
              8
            ]
          },
          {
            "type": "DICE",
            "pos": [
              6,
              6
            ]
          },
          {
            "type": "DICE",
            "pos": [
              7,
              5
            ]
          },
          {
            "type": "DICE",
            "pos": [
              8,
              8
            ]
          },
          {
            "type": "DICE",
            "pos": [
              9,
              5
            ]
          },
          {
            "type": "DICE",
            "pos": [
              10,
              7
            ]
          }
        ],
        "initial_rules": [
          [
            "PUMPKIN",
            "IS",
            "YOU"
          ],
          [
            "DICE",
            "IS",
            "STOP"
          ]
        ],
        "condition": "default"
      },
      "level_name": "Grass Yard",
      "selection_time": 0.572,
      "trial_index": 16,
      "plugin_version": "1.0.0",
      "time_elapsed": 33037,
      "prolific_pid": null,
      "study_id": null,
      "session_id": null
    },
    {
      "trial_type": "baba-game",
      "participant_id": "P_1751511685551_f4561x7rb",
      "condition_type": "high-prior",
      "level_id": "journey_environment",
      "level_name": "Grass Yard",
      "chapter_name": "journey",
      "success": true,
      "completion_reason": "completed",
      "total_time": 7.021,
      "move_count": 33,
      "undo_count": 0,
      "pause_count": 0,
      "remaining_time": 472.978,
      "operation_count": 68,
      "trial_index": 17,
      "plugin_version": "1.0.0",
      "time_elapsed": 42036,
      "prolific_pid": null,
      "study_id": null,
      "session_id": null
    },
    {
      "trial_type": "rating-scale",
      "participant_id": "P_1751511685551_f4561x7rb",
      "rating_type": "difficulty",
      "rating_value": 5,
      "level_name": "Unknown Level",
      "question": "According to your experience, how difficult was last level?",
      "scale_min": 0,
      "scale_max": 10,
      "response_time": 1.576,
      "trial_index": 18,
      "plugin_version": "1.0.0",
      "time_elapsed": 43863,
      "prolific_pid": null,
      "study_id": null,
      "session_id": null
    },
    {
      "trial_type": "rating-scale",
      "participant_id": "P_1751511685551_f4561x7rb",
      "rating_type": "creativity",
      "rating_value": 5,
      "level_name": "Unknown Level",
      "question": "According to your experience, how creative do you think you were in last level?",
      "scale_min": 0,
      "scale_max": 10,
      "response_time": 1.528,
      "trial_index": 19,
      "plugin_version": "1.0.0",
      "time_elapsed": 45648,
      "prolific_pid": null,
      "study_id": null,
      "session_id": null
    },
    {
      "trial_type": "feedback-input",
      "participant_id": "P_1751511685551_f4561x7rb",
      "feedback": "",
      "level_name": "Unknown Level",
      "response_time": 0.458,
      "trial_index": 20,
      "plugin_version": "1.0.0",
      "time_elapsed": 46357,
      "prolific_pid": null,
      "study_id": null,
      "session_id": null
    },
    {
      "trial_type": "chapter-select",
      "participant_id": "P_1751511685551_f4561x7rb",
      "selection_type": "level",
      "selected_level": 1,
      "level_data": {
        "level_id": "journey_understandproperty",
        "name": "Bridge Building",
        "grid_size": [
          14,
          12
        ],
        "required_objects": [
          "you_obj",
          "win_obj",
          "push_obj",
          "destruct_obj"
        ],
        "elements": [
          {
            "type": "TEXT_PUMPKIN",
            "pos": [
              0,
              0
            ],
            "properties": [
              "text"
            ]
          },
          {
            "type": "TEXT_IS",
            "pos": [
              1,
              0
            ],
            "properties": [
              "text"
            ]
          },
          {
            "type": "TEXT_YOU",
            "pos": [
              2,
              0
            ],
            "properties": [
              "text"
            ]
          },
          {
            "type": "TEXT_SUN",
            "pos": [
              0,
              1
            ],
            "properties": [
              "text"
            ]
          },
          {
            "type": "TEXT_IS",
            "pos": [
              1,
              1
            ],
            "properties": [
              "text"
            ]
          },
          {
            "type": "TEXT_WIN",
            "pos": [
              2,
              1
            ],
            "properties": [
              "text"
            ]
          },
          {
            "type": "TEXT_BOMB",
            "pos": [
              0,
              2
            ],
            "properties": [
              "text"
            ]
          },
          {
            "type": "TEXT_IS",
            "pos": [
              1,
              2
            ],
            "properties": [
              "text"
            ]
          },
          {
            "type": "TEXT_DESTRUCT",
            "pos": [
              2,
              2
            ],
            "properties": [
              "text"
            ]
          },
          {
            "type": "TEXT_CLOUD",
            "pos": [
              3,
              8
            ],
            "properties": [
              "text"
            ]
          },
          {
            "type": "TEXT_IS",
            "pos": [
              4,
              8
            ],
            "properties": [
              "text"
            ]
          },
          {
            "type": "TEXT_PUSH",
            "pos": [
              5,
              8
            ],
            "properties": [
              "text"
            ]
          },
          {
            "type": "PUMPKIN",
            "pos": [
              3,
              5
            ],
            "properties": [
              "you"
            ]
          },
          {
            "type": "SUN",
            "pos": [
              11,
              5
            ],
            "properties": [
              "win"
            ]
          },
          {
            "type": "CLOUD",
            "pos": [
              5,
              4
            ],
            "properties": [
              "push"
            ]
          },
          {
            "type": "CLOUD",
            "pos": [
              5,
              6
            ],
            "properties": [
              "push"
            ]
          },
          {
            "type": "BOMB",
            "pos": [
              8,
              0
            ],
            "properties": [
              "destruct"
            ]
          },
          {
            "type": "BOMB",
            "pos": [
              8,
              1
            ],
            "properties": [
              "destruct"
            ]
          },
          {
            "type": "BOMB",
            "pos": [
              8,
              2
            ],
            "properties": [
              "destruct"
            ]
          },
          {
            "type": "BOMB",
            "pos": [
              8,
              3
            ],
            "properties": [
              "destruct"
            ]
          },
          {
            "type": "BOMB",
            "pos": [
              8,
              4
            ],
            "properties": [
              "destruct"
            ]
          },
          {
            "type": "BOMB",
            "pos": [
              8,
              5
            ],
            "properties": [
              "destruct"
            ]
          },
          {
            "type": "BOMB",
            "pos": [
              8,
              6
            ],
            "properties": [
              "destruct"
            ]
          },
          {
            "type": "BOMB",
            "pos": [
              8,
              7
            ],
            "properties": [
              "destruct"
            ]
          },
          {
            "type": "BOMB",
            "pos": [
              8,
              8
            ],
            "properties": [
              "destruct"
            ]
          },
          {
            "type": "BOMB",
            "pos": [
              8,
              9
            ],
            "properties": [
              "destruct"
            ]
          },
          {
            "type": "BOMB",
            "pos": [
              8,
              10
            ],
            "properties": [
              "destruct"
            ]
          },
          {
            "type": "BOMB",
            "pos": [
              8,
              11
            ],
            "properties": [
              "destruct"
            ]
          },
          {
            "type": "BOMB",
            "pos": [
              9,
              0
            ],
            "properties": [
              "destruct"
            ]
          },
          {
            "type": "BOMB",
            "pos": [
              9,
              1
            ],
            "properties": [
              "destruct"
            ]
          },
          {
            "type": "BOMB",
            "pos": [
              9,
              2
            ],
            "properties": [
              "destruct"
            ]
          },
          {
            "type": "BOMB",
            "pos": [
              9,
              3
            ],
            "properties": [
              "destruct"
            ]
          },
          {
            "type": "BOMB",
            "pos": [
              9,
              4
            ],
            "properties": [
              "destruct"
            ]
          },
          {
            "type": "BOMB",
            "pos": [
              9,
              5
            ],
            "properties": [
              "destruct"
            ]
          },
          {
            "type": "BOMB",
            "pos": [
              9,
              6
            ],
            "properties": [
              "destruct"
            ]
          },
          {
            "type": "BOMB",
            "pos": [
              9,
              7
            ],
            "properties": [
              "destruct"
            ]
          },
          {
            "type": "BOMB",
            "pos": [
              9,
              8
            ],
            "properties": [
              "destruct"
            ]
          },
          {
            "type": "BOMB",
            "pos": [
              9,
              9
            ],
            "properties": [
              "destruct"
            ]
          },
          {
            "type": "BOMB",
            "pos": [
              9,
              10
            ],
            "properties": [
              "destruct"
            ]
          },
          {
            "type": "BOMB",
            "pos": [
              9,
              11
            ],
            "properties": [
              "destruct"
            ]
          }
        ],
        "initial_objects": [
          {
            "type": "TEXT_PUMPKIN",
            "pos": [
              0,
              0
            ]
          },
          {
            "type": "TEXT_IS",
            "pos": [
              1,
              0
            ]
          },
          {
            "type": "TEXT_YOU",
            "pos": [
              2,
              0
            ]
          },
          {
            "type": "TEXT_SUN",
            "pos": [
              0,
              1
            ]
          },
          {
            "type": "TEXT_IS",
            "pos": [
              1,
              1
            ]
          },
          {
            "type": "TEXT_WIN",
            "pos": [
              2,
              1
            ]
          },
          {
            "type": "TEXT_BOMB",
            "pos": [
              0,
              2
            ]
          },
          {
            "type": "TEXT_IS",
            "pos": [
              1,
              2
            ]
          },
          {
            "type": "TEXT_DESTRUCT",
            "pos": [
              2,
              2
            ]
          },
          {
            "type": "TEXT_CLOUD",
            "pos": [
              3,
              8
            ]
          },
          {
            "type": "TEXT_IS",
            "pos": [
              4,
              8
            ]
          },
          {
            "type": "TEXT_PUSH",
            "pos": [
              5,
              8
            ]
          },
          {
            "type": "PUMPKIN",
            "pos": [
              3,
              5
            ]
          },
          {
            "type": "SUN",
            "pos": [
              11,
              5
            ]
          },
          {
            "type": "CLOUD",
            "pos": [
              5,
              4
            ]
          },
          {
            "type": "CLOUD",
            "pos": [
              5,
              6
            ]
          },
          {
            "type": "BOMB",
            "pos": [
              8,
              0
            ]
          },
          {
            "type": "BOMB",
            "pos": [
              8,
              1
            ]
          },
          {
            "type": "BOMB",
            "pos": [
              8,
              2
            ]
          },
          {
            "type": "BOMB",
            "pos": [
              8,
              3
            ]
          },
          {
            "type": "BOMB",
            "pos": [
              8,
              4
            ]
          },
          {
            "type": "BOMB",
            "pos": [
              8,
              5
            ]
          },
          {
            "type": "BOMB",
            "pos": [
              8,
              6
            ]
          },
          {
            "type": "BOMB",
            "pos": [
              8,
              7
            ]
          },
          {
            "type": "BOMB",
            "pos": [
              8,
              8
            ]
          },
          {
            "type": "BOMB",
            "pos": [
              8,
              9
            ]
          },
          {
            "type": "BOMB",
            "pos": [
              8,
              10
            ]
          },
          {
            "type": "BOMB",
            "pos": [
              8,
              11
            ]
          },
          {
            "type": "BOMB",
            "pos": [
              9,
              0
            ]
          },
          {
            "type": "BOMB",
            "pos": [
              9,
              1
            ]
          },
          {
            "type": "BOMB",
            "pos": [
              9,
              2
            ]
          },
          {
            "type": "BOMB",
            "pos": [
              9,
              3
            ]
          },
          {
            "type": "BOMB",
            "pos": [
              9,
              4
            ]
          },
          {
            "type": "BOMB",
            "pos": [
              9,
              5
            ]
          },
          {
            "type": "BOMB",
            "pos": [
              9,
              6
            ]
          },
          {
            "type": "BOMB",
            "pos": [
              9,
              7
            ]
          },
          {
            "type": "BOMB",
            "pos": [
              9,
              8
            ]
          },
          {
            "type": "BOMB",
            "pos": [
              9,
              9
            ]
          },
          {
            "type": "BOMB",
            "pos": [
              9,
              10
            ]
          },
          {
            "type": "BOMB",
            "pos": [
              9,
              11
            ]
          }
        ],
        "initial_rules": [
          [
            "PUMPKIN",
            "IS",
            "YOU"
          ],
          [
            "SUN",
            "IS",
            "WIN"
          ],
          [
            "CLOUD",
            "IS",
            "PUSH"
          ],
          [
            "BOMB",
            "IS",
            "DESTRUCT"
          ]
        ],
        "condition": "default"
      },
      "level_name": "Bridge Building",
      "selection_time": 0.898,
      "trial_index": 21,
      "plugin_version": "1.0.0",
      "time_elapsed": 47513,
      "prolific_pid": null,
      "study_id": null,
      "session_id": null
    },
    {
      "trial_type": "baba-game",
      "participant_id": "P_1751511685551_f4561x7rb",
      "condition_type": "high-prior",
      "level_id": "journey_understandproperty",
      "level_name": "Bridge Building",
      "chapter_name": "journey",
      "success": true,
      "completion_reason": "completed",
      "total_time": 4.772,
      "move_count": 24,
      "undo_count": 0,
      "pause_count": 0,
      "remaining_time": 475.227,
      "operation_count": 48,
      "trial_index": 22,
      "plugin_version": "1.0.0",
      "time_elapsed": 54254,
      "prolific_pid": null,
      "study_id": null,
      "session_id": null
    },
    {
      "trial_type": "rating-scale",
      "participant_id": "P_1751511685551_f4561x7rb",
      "rating_type": "difficulty",
      "rating_value": 6,
      "level_name": "Unknown Level",
      "question": "According to your experience, how difficult was last level?",
      "scale_min": 0,
      "scale_max": 10,
      "response_time": 1.238,
      "trial_index": 23,
      "plugin_version": "1.0.0",
      "time_elapsed": 55757,
      "prolific_pid": null,
      "study_id": null,
      "session_id": null
    },
    {
      "trial_type": "rating-scale",
      "participant_id": "P_1751511685551_f4561x7rb",
      "rating_type": "creativity",
      "rating_value": 5,
      "level_name": "Unknown Level",
      "question": "According to your experience, how creative do you think you were in last level?",
      "scale_min": 0,
      "scale_max": 10,
      "response_time": 0.9,
      "trial_index": 24,
      "plugin_version": "1.0.0",
      "time_elapsed": 56916,
      "prolific_pid": null,
      "study_id": null,
      "session_id": null
    },
    {
      "trial_type": "feedback-input",
      "participant_id": "P_1751511685551_f4561x7rb",
      "feedback": "",
      "level_name": "Unknown Level",
      "response_time": 0.67,
      "trial_index": 25,
      "plugin_version": "1.0.0",
      "time_elapsed": 57849,
      "prolific_pid": null,
      "study_id": null,
      "session_id": null
    },
    {
      "trial_type": "chapter-select",
      "participant_id": "P_1751511685551_f4561x7rb",
      "selection_type": "level",
      "selected_level": 2,
      "level_data": {
        "level_id": "journey_switchidentity",
        "name": "Locked in",
        "grid_size": [
          14,
          12
        ],
        "required_objects": [
          "you_obj",
          "win_obj",
          "shut_obj",
          "red_obj"
        ],
        "elements": [
          {
            "type": "TEXT_PUMPKIN",
            "pos": [
              0,
              0
            ],
            "properties": [
              "text"
            ]
          },
          {
            "type": "TEXT_IS",
            "pos": [
              1,
              0
            ],
            "properties": [
              "text"
            ]
          },
          {
            "type": "TEXT_YOU",
            "pos": [
              2,
              0
            ],
            "properties": [
              "text"
            ]
          },
          {
            "type": "TEXT_SUN",
            "pos": [
              0,
              1
            ],
            "properties": [
              "text"
            ]
          },
          {
            "type": "TEXT_IS",
            "pos": [
              1,
              1
            ],
            "properties": [
              "text"
            ]
          },
          {
            "type": "TEXT_WIN",
            "pos": [
              2,
              1
            ],
            "properties": [
              "text"
            ]
          },
          {
            "type": "TEXT_CHAIN",
            "pos": [
              0,
              2
            ],
            "properties": [
              "text"
            ]
          },
          {
            "type": "TEXT_IS",
            "pos": [
              1,
              2
            ],
            "properties": [
              "text"
            ]
          },
          {
            "type": "TEXT_SHUT",
            "pos": [
              2,
              2
            ],
            "properties": [
              "text"
            ]
          },
          {
            "type": "TEXT_CHAIN",
            "pos": [
              9,
              4
            ],
            "properties": [
              "text"
            ]
          },
          {
            "type": "TEXT_IS",
            "pos": [
              9,
              5
            ],
            "properties": [
              "text"
            ]
          },
          {
            "type": "TEXT_ANCHOR",
            "pos": [
              6,
              8
            ],
            "properties": [
              "text"
            ]
          },
          {
            "type": "TEXT_IS",
            "pos": [
              7,
              8
            ],
            "properties": [
              "text"
            ]
          },
          {
            "type": "TEXT_RED",
            "pos": [
              8,
              8
            ],
            "properties": [
              "text"
            ]
          },
          {
            "type": "PUMPKIN",
            "pos": [
              5,
              3
            ],
            "properties": [
              "you"
            ]
          },
          {
            "type": "SUN",
            "pos": [
              2,
              6
            ],
            "properties": [
              "win"
            ]
          },
          {
            "type": "ANCHOR",
            "pos": [
              5,
              4
            ],
            "properties": [
              "red"
            ]
          },
          {
            "type": "ANCHOR",
            "pos": [
              6,
              4
            ],
            "properties": [
              "red"
            ]
          },
          {
            "type": "ANCHOR",
            "pos": [
              6,
              3
            ],
            "properties": [
              "red"
            ]
          },
          {
            "type": "CHAIN",
            "pos": [
              4,
              1
            ],
            "properties": [
              "shut"
            ]
          },
          {
            "type": "CHAIN",
            "pos": [
              4,
              2
            ],
            "properties": [
              "shut"
            ]
          },
          {
            "type": "CHAIN",
            "pos": [
              4,
              3
            ],
            "properties": [
              "shut"
            ]
          },
          {
            "type": "CHAIN",
            "pos": [
              4,
              4
            ],
            "properties": [
              "shut"
            ]
          },
          {
            "type": "CHAIN",
            "pos": [
              4,
              5
            ],
            "properties": [
              "shut"
            ]
          },
          {
            "type": "CHAIN",
            "pos": [
              4,
              6
            ],
            "properties": [
              "shut"
            ]
          },
          {
            "type": "CHAIN",
            "pos": [
              4,
              7
            ],
            "properties": [
              "shut"
            ]
          },
          {
            "type": "CHAIN",
            "pos": [
              4,
              8
            ],
            "properties": [
              "shut"
            ]
          },
          {
            "type": "CHAIN",
            "pos": [
              4,
              9
            ],
            "properties": [
              "shut"
            ]
          },
          {
            "type": "CHAIN",
            "pos": [
              5,
              1
            ],
            "properties": [
              "shut"
            ]
          },
          {
            "type": "CHAIN",
            "pos": [
              6,
              1
            ],
            "properties": [
              "shut"
            ]
          },
          {
            "type": "CHAIN",
            "pos": [
              7,
              1
            ],
            "properties": [
              "shut"
            ]
          },
          {
            "type": "CHAIN",
            "pos": [
              8,
              1
            ],
            "properties": [
              "shut"
            ]
          },
          {
            "type": "CHAIN",
            "pos": [
              9,
              1
            ],
            "properties": [
              "shut"
            ]
          },
          {
            "type": "CHAIN",
            "pos": [
              10,
              1
            ],
            "properties": [
              "shut"
            ]
          },
          {
            "type": "CHAIN",
            "pos": [
              11,
              1
            ],
            "properties": [
              "shut"
            ]
          },
          {
            "type": "CHAIN",
            "pos": [
              5,
              9
            ],
            "properties": [
              "shut"
            ]
          },
          {
            "type": "CHAIN",
            "pos": [
              6,
              9
            ],
            "properties": [
              "shut"
            ]
          },
          {
            "type": "CHAIN",
            "pos": [
              7,
              9
            ],
            "properties": [
              "shut"
            ]
          },
          {
            "type": "CHAIN",
            "pos": [
              8,
              9
            ],
            "properties": [
              "shut"
            ]
          },
          {
            "type": "CHAIN",
            "pos": [
              9,
              9
            ],
            "properties": [
              "shut"
            ]
          },
          {
            "type": "CHAIN",
            "pos": [
              10,
              9
            ],
            "properties": [
              "shut"
            ]
          },
          {
            "type": "CHAIN",
            "pos": [
              11,
              9
            ],
            "properties": [
              "shut"
            ]
          },
          {
            "type": "CHAIN",
            "pos": [
              12,
              1
            ],
            "properties": [
              "shut"
            ]
          },
          {
            "type": "CHAIN",
            "pos": [
              12,
              2
            ],
            "properties": [
              "shut"
            ]
          },
          {
            "type": "CHAIN",
            "pos": [
              12,
              3
            ],
            "properties": [
              "shut"
            ]
          },
          {
            "type": "CHAIN",
            "pos": [
              12,
              4
            ],
            "properties": [
              "shut"
            ]
          },
          {
            "type": "CHAIN",
            "pos": [
              12,
              5
            ],
            "properties": [
              "shut"
            ]
          },
          {
            "type": "CHAIN",
            "pos": [
              12,
              6
            ],
            "properties": [
              "shut"
            ]
          },
          {
            "type": "CHAIN",
            "pos": [
              12,
              7
            ],
            "properties": [
              "shut"
            ]
          },
          {
            "type": "CHAIN",
            "pos": [
              12,
              8
            ],
            "properties": [
              "shut"
            ]
          },
          {
            "type": "CHAIN",
            "pos": [
              12,
              9
            ],
            "properties": [
              "shut"
            ]
          }
        ],
        "initial_objects": [
          {
            "type": "TEXT_PUMPKIN",
            "pos": [
              0,
              0
            ]
          },
          {
            "type": "TEXT_IS",
            "pos": [
              1,
              0
            ]
          },
          {
            "type": "TEXT_YOU",
            "pos": [
              2,
              0
            ]
          },
          {
            "type": "TEXT_SUN",
            "pos": [
              0,
              1
            ]
          },
          {
            "type": "TEXT_IS",
            "pos": [
              1,
              1
            ]
          },
          {
            "type": "TEXT_WIN",
            "pos": [
              2,
              1
            ]
          },
          {
            "type": "TEXT_CHAIN",
            "pos": [
              0,
              2
            ]
          },
          {
            "type": "TEXT_IS",
            "pos": [
              1,
              2
            ]
          },
          {
            "type": "TEXT_SHUT",
            "pos": [
              2,
              2
            ]
          },
          {
            "type": "TEXT_CHAIN",
            "pos": [
              9,
              4
            ]
          },
          {
            "type": "TEXT_IS",
            "pos": [
              9,
              5
            ]
          },
          {
            "type": "TEXT_ANCHOR",
            "pos": [
              6,
              8
            ]
          },
          {
            "type": "TEXT_IS",
            "pos": [
              7,
              8
            ]
          },
          {
            "type": "TEXT_RED",
            "pos": [
              8,
              8
            ]
          },
          {
            "type": "PUMPKIN",
            "pos": [
              5,
              3
            ]
          },
          {
            "type": "SUN",
            "pos": [
              2,
              6
            ]
          },
          {
            "type": "ANCHOR",
            "pos": [
              5,
              4
            ]
          },
          {
            "type": "ANCHOR",
            "pos": [
              6,
              4
            ]
          },
          {
            "type": "ANCHOR",
            "pos": [
              6,
              3
            ]
          },
          {
            "type": "CHAIN",
            "pos": [
              4,
              1
            ]
          },
          {
            "type": "CHAIN",
            "pos": [
              4,
              2
            ]
          },
          {
            "type": "CHAIN",
            "pos": [
              4,
              3
            ]
          },
          {
            "type": "CHAIN",
            "pos": [
              4,
              4
            ]
          },
          {
            "type": "CHAIN",
            "pos": [
              4,
              5
            ]
          },
          {
            "type": "CHAIN",
            "pos": [
              4,
              6
            ]
          },
          {
            "type": "CHAIN",
            "pos": [
              4,
              7
            ]
          },
          {
            "type": "CHAIN",
            "pos": [
              4,
              8
            ]
          },
          {
            "type": "CHAIN",
            "pos": [
              4,
              9
            ]
          },
          {
            "type": "CHAIN",
            "pos": [
              5,
              1
            ]
          },
          {
            "type": "CHAIN",
            "pos": [
              6,
              1
            ]
          },
          {
            "type": "CHAIN",
            "pos": [
              7,
              1
            ]
          },
          {
            "type": "CHAIN",
            "pos": [
              8,
              1
            ]
          },
          {
            "type": "CHAIN",
            "pos": [
              9,
              1
            ]
          },
          {
            "type": "CHAIN",
            "pos": [
              10,
              1
            ]
          },
          {
            "type": "CHAIN",
            "pos": [
              11,
              1
            ]
          },
          {
            "type": "CHAIN",
            "pos": [
              5,
              9
            ]
          },
          {
            "type": "CHAIN",
            "pos": [
              6,
              9
            ]
          },
          {
            "type": "CHAIN",
            "pos": [
              7,
              9
            ]
          },
          {
            "type": "CHAIN",
            "pos": [
              8,
              9
            ]
          },
          {
            "type": "CHAIN",
            "pos": [
              9,
              9
            ]
          },
          {
            "type": "CHAIN",
            "pos": [
              10,
              9
            ]
          },
          {
            "type": "CHAIN",
            "pos": [
              11,
              9
            ]
          },
          {
            "type": "CHAIN",
            "pos": [
              12,
              1
            ]
          },
          {
            "type": "CHAIN",
            "pos": [
              12,
              2
            ]
          },
          {
            "type": "CHAIN",
            "pos": [
              12,
              3
            ]
          },
          {
            "type": "CHAIN",
            "pos": [
              12,
              4
            ]
          },
          {
            "type": "CHAIN",
            "pos": [
              12,
              5
            ]
          },
          {
            "type": "CHAIN",
            "pos": [
              12,
              6
            ]
          },
          {
            "type": "CHAIN",
            "pos": [
              12,
              7
            ]
          },
          {
            "type": "CHAIN",
            "pos": [
              12,
              8
            ]
          },
          {
            "type": "CHAIN",
            "pos": [
              12,
              9
            ]
          }
        ],
        "initial_rules": [
          [
            "PUMPKIN",
            "IS",
            "YOU"
          ],
          [
            "SUN",
            "IS",
            "WIN"
          ],
          [
            "ANCHOR",
            "IS",
            "RED"
          ],
          [
            "CHAIN",
            "IS",
            "SHUT"
          ]
        ],
        "condition": "default"
      },
      "level_name": "Locked in",
      "selection_time": 0.596,
      "trial_index": 26,
      "plugin_version": "1.0.0",
      "time_elapsed": 58709,
      "prolific_pid": null,
      "study_id": null,
      "session_id": null
    },
    {
      "trial_type": "baba-game",
      "participant_id": "P_1751511685551_f4561x7rb",
      "condition_type": "high-prior",
      "level_id": "journey_switchidentity",
      "level_name": "Locked in",
      "chapter_name": "journey",
      "success": true,
      "completion_reason": "completed",
      "total_time": 10.599,
      "move_count": 44,
      "undo_count": 0,
      "pause_count": 0,
      "remaining_time": 469.4,
      "operation_count": 88,
      "trial_index": 27,
      "plugin_version": "1.0.0",
      "time_elapsed": 71285,
      "prolific_pid": null,
      "study_id": null,
      "session_id": null
    },
    {
      "trial_type": "rating-scale",
      "participant_id": "P_1751511685551_f4561x7rb",
      "rating_type": "difficulty",
      "rating_value": 5,
      "level_name": "Unknown Level",
      "question": "According to your experience, how difficult was last level?",
      "scale_min": 0,
      "scale_max": 10,
      "response_time": 1.512,
      "trial_index": 28,
      "plugin_version": "1.0.0",
      "time_elapsed": 73062,
      "prolific_pid": null,
      "study_id": null,
      "session_id": null
    },
    {
      "trial_type": "rating-scale",
      "participant_id": "P_1751511685551_f4561x7rb",
      "rating_type": "creativity",
      "rating_value": 5,
      "level_name": "Unknown Level",
      "question": "According to your experience, how creative do you think you were in last level?",
      "scale_min": 0,
      "scale_max": 10,
      "response_time": 1.041,
      "trial_index": 29,
      "plugin_version": "1.0.0",
      "time_elapsed": 74360,
      "prolific_pid": null,
      "study_id": null,
      "session_id": null
    },
    {
      "trial_type": "feedback-input",
      "participant_id": "P_1751511685551_f4561x7rb",
      "feedback": "",
      "level_name": "Unknown Level",
      "response_time": 1.047,
      "trial_index": 30,
      "plugin_version": "1.0.0",
      "time_elapsed": 75669,
      "prolific_pid": null,
      "study_id": null,
      "session_id": null
    },
    {
      "trial_type": "chapter-select",
      "participant_id": "P_1751511685551_f4561x7rb",
      "selection_type": "level",
      "selected_level": 3,
      "level_data": {
        "level_id": "journey_break",
        "name": "Out of Reach",
        "grid_size": [
          20,
          14
        ],
        "required_objects": [
          "you_obj",
          "win_obj",
          "defeat_obj",
          "push_obj"
        ],
        "elements": [
          {
            "type": "TEXT_PUMPKIN",
            "pos": [
              0,
              1
            ],
            "properties": [
              "text"
            ]
          },
          {
            "type": "TEXT_IS",
            "pos": [
              1,
              1
            ],
            "properties": [
              "text"
            ]
          },
          {
            "type": "TEXT_YOU",
            "pos": [
              2,
              1
            ],
            "properties": [
              "text"
            ]
          },
          {
            "type": "TEXT_SUN",
            "pos": [
              0,
              0
            ],
            "properties": [
              "text"
            ]
          },
          {
            "type": "TEXT_IS",
            "pos": [
              1,
              0
            ],
            "properties": [
              "text"
            ]
          },
          {
            "type": "TEXT_WIN",
            "pos": [
              2,
              0
            ],
            "properties": [
              "text"
            ]
          },
          {
            "type": "TEXT_BOMB",
            "pos": [
              15,
              5
            ],
            "properties": [
              "text"
            ]
          },
          {
            "type": "TEXT_IS",
            "pos": [
              15,
              6
            ],
            "properties": [
              "text"
            ]
          },
          {
            "type": "TEXT_DEFEAT",
            "pos": [
              15,
              7
            ],
            "properties": [
              "text"
            ]
          },
          {
            "type": "TEXT_CLOUD",
            "pos": [
              2,
              5
            ],
            "properties": [
              "text"
            ]
          },
          {
            "type": "TEXT_IS",
            "pos": [
              3,
              5
            ],
            "properties": [
              "text"
            ]
          },
          {
            "type": "TEXT_PUSH",
            "pos": [
              4,
              5
            ],
            "properties": [
              "text"
            ]
          },
          {
            "type": "PUMPKIN",
            "pos": [
              6,
              12
            ],
            "properties": [
              "you"
            ]
          },
          {
            "type": "SUN",
            "pos": [
              14,
              9
            ],
            "properties": [
              "win"
            ]
          },
          {
            "type": "CLOUD",
            "pos": [
              6,
              8
            ],
            "properties": [
              "push"
            ]
          },
          {
            "type": "CLOUD",
            "pos": [
              6,
              9
            ],
            "properties": [
              "push"
            ]
          },
          {
            "type": "CLOUD",
            "pos": [
              6,
              10
            ],
            "properties": [
              "push"
            ]
          },
          {
            "type": "BOMB",
            "pos": [
              3,
              9
            ],
            "properties": [
              "defeat"
            ]
          },
          {
            "type": "BOMB",
            "pos": [
              3,
              10
            ],
            "properties": [
              "defeat"
            ]
          },
          {
            "type": "BOMB",
            "pos": [
              3,
              11
            ],
            "properties": [
              "defeat"
            ]
          },
          {
            "type": "BOMB",
            "pos": [
              3,
              12
            ],
            "properties": [
              "defeat"
            ]
          },
          {
            "type": "BOMB",
            "pos": [
              3,
              13
            ],
            "properties": [
              "defeat"
            ]
          },
          {
            "type": "BOMB",
            "pos": [
              4,
              9
            ],
            "properties": [
              "defeat"
            ]
          },
          {
            "type": "BOMB",
            "pos": [
              5,
              7
            ],
            "properties": [
              "defeat"
            ]
          },
          {
            "type": "BOMB",
            "pos": [
              5,
              8
            ],
            "properties": [
              "defeat"
            ]
          },
          {
            "type": "BOMB",
            "pos": [
              5,
              9
            ],
            "properties": [
              "defeat"
            ]
          },
          {
            "type": "BOMB",
            "pos": [
              7,
              7
            ],
            "properties": [
              "defeat"
            ]
          },
          {
            "type": "BOMB",
            "pos": [
              7,
              8
            ],
            "properties": [
              "defeat"
            ]
          },
          {
            "type": "BOMB",
            "pos": [
              7,
              9
            ],
            "properties": [
              "defeat"
            ]
          },
          {
            "type": "BOMB",
            "pos": [
              8,
              9
            ],
            "properties": [
              "defeat"
            ]
          },
          {
            "type": "BOMB",
            "pos": [
              9,
              9
            ],
            "properties": [
              "defeat"
            ]
          },
          {
            "type": "BOMB",
            "pos": [
              9,
              10
            ],
            "properties": [
              "defeat"
            ]
          },
          {
            "type": "BOMB",
            "pos": [
              9,
              11
            ],
            "properties": [
              "defeat"
            ]
          },
          {
            "type": "BOMB",
            "pos": [
              9,
              12
            ],
            "properties": [
              "defeat"
            ]
          },
          {
            "type": "BOMB",
            "pos": [
              9,
              13
            ],
            "properties": [
              "defeat"
            ]
          },
          {
            "type": "BOMB",
            "pos": [
              13,
              3
            ],
            "properties": [
              "defeat"
            ]
          },
          {
            "type": "BOMB",
            "pos": [
              13,
              4
            ],
            "properties": [
              "defeat"
            ]
          },
          {
            "type": "BOMB",
            "pos": [
              13,
              5
            ],
            "properties": [
              "defeat"
            ]
          },
          {
            "type": "BOMB",
            "pos": [
              13,
              6
            ],
            "properties": [
              "defeat"
            ]
          },
          {
            "type": "BOMB",
            "pos": [
              13,
              7
            ],
            "properties": [
              "defeat"
            ]
          },
          {
            "type": "BOMB",
            "pos": [
              13,
              8
            ],
            "properties": [
              "defeat"
            ]
          },
          {
            "type": "BOMB",
            "pos": [
              13,
              9
            ],
            "properties": [
              "defeat"
            ]
          },
          {
            "type": "BOMB",
            "pos": [
              13,
              10
            ],
            "properties": [
              "defeat"
            ]
          },
          {
            "type": "BOMB",
            "pos": [
              13,
              11
            ],
            "properties": [
              "defeat"
            ]
          },
          {
            "type": "BOMB",
            "pos": [
              17,
              3
            ],
            "properties": [
              "defeat"
            ]
          },
          {
            "type": "BOMB",
            "pos": [
              17,
              4
            ],
            "properties": [
              "defeat"
            ]
          },
          {
            "type": "BOMB",
            "pos": [
              17,
              5
            ],
            "properties": [
              "defeat"
            ]
          },
          {
            "type": "BOMB",
            "pos": [
              17,
              6
            ],
            "properties": [
              "defeat"
            ]
          },
          {
            "type": "BOMB",
            "pos": [
              17,
              7
            ],
            "properties": [
              "defeat"
            ]
          },
          {
            "type": "BOMB",
            "pos": [
              17,
              8
            ],
            "properties": [
              "defeat"
            ]
          },
          {
            "type": "BOMB",
            "pos": [
              17,
              9
            ],
            "properties": [
              "defeat"
            ]
          },
          {
            "type": "BOMB",
            "pos": [
              17,
              10
            ],
            "properties": [
              "defeat"
            ]
          },
          {
            "type": "BOMB",
            "pos": [
              17,
              11
            ],
            "properties": [
              "defeat"
            ]
          },
          {
            "type": "BOMB",
            "pos": [
              14,
              3
            ],
            "properties": [
              "defeat"
            ]
          },
          {
            "type": "BOMB",
            "pos": [
              15,
              3
            ],
            "properties": [
              "defeat"
            ]
          },
          {
            "type": "BOMB",
            "pos": [
              16,
              3
            ],
            "properties": [
              "defeat"
            ]
          },
          {
            "type": "BOMB",
            "pos": [
              14,
              11
            ],
            "properties": [
              "defeat"
            ]
          },
          {
            "type": "BOMB",
            "pos": [
              15,
              11
            ],
            "properties": [
              "defeat"
            ]
          },
          {
            "type": "BOMB",
            "pos": [
              16,
              11
            ],
            "properties": [
              "defeat"
            ]
          }
        ],
        "initial_objects": [
          {
            "type": "TEXT_PUMPKIN",
            "pos": [
              0,
              1
            ]
          },
          {
            "type": "TEXT_IS",
            "pos": [
              1,
              1
            ]
          },
          {
            "type": "TEXT_YOU",
            "pos": [
              2,
              1
            ]
          },
          {
            "type": "TEXT_SUN",
            "pos": [
              0,
              0
            ]
          },
          {
            "type": "TEXT_IS",
            "pos": [
              1,
              0
            ]
          },
          {
            "type": "TEXT_WIN",
            "pos": [
              2,
              0
            ]
          },
          {
            "type": "TEXT_BOMB",
            "pos": [
              15,
              5
            ]
          },
          {
            "type": "TEXT_IS",
            "pos": [
              15,
              6
            ]
          },
          {
            "type": "TEXT_DEFEAT",
            "pos": [
              15,
              7
            ]
          },
          {
            "type": "TEXT_CLOUD",
            "pos": [
              2,
              5
            ]
          },
          {
            "type": "TEXT_IS",
            "pos": [
              3,
              5
            ]
          },
          {
            "type": "TEXT_PUSH",
            "pos": [
              4,
              5
            ]
          },
          {
            "type": "PUMPKIN",
            "pos": [
              6,
              12
            ]
          },
          {
            "type": "SUN",
            "pos": [
              14,
              9
            ]
          },
          {
            "type": "CLOUD",
            "pos": [
              6,
              8
            ]
          },
          {
            "type": "CLOUD",
            "pos": [
              6,
              9
            ]
          },
          {
            "type": "CLOUD",
            "pos": [
              6,
              10
            ]
          },
          {
            "type": "BOMB",
            "pos": [
              3,
              9
            ]
          },
          {
            "type": "BOMB",
            "pos": [
              3,
              10
            ]
          },
          {
            "type": "BOMB",
            "pos": [
              3,
              11
            ]
          },
          {
            "type": "BOMB",
            "pos": [
              3,
              12
            ]
          },
          {
            "type": "BOMB",
            "pos": [
              3,
              13
            ]
          },
          {
            "type": "BOMB",
            "pos": [
              4,
              9
            ]
          },
          {
            "type": "BOMB",
            "pos": [
              5,
              7
            ]
          },
          {
            "type": "BOMB",
            "pos": [
              5,
              8
            ]
          },
          {
            "type": "BOMB",
            "pos": [
              5,
              9
            ]
          },
          {
            "type": "BOMB",
            "pos": [
              7,
              7
            ]
          },
          {
            "type": "BOMB",
            "pos": [
              7,
              8
            ]
          },
          {
            "type": "BOMB",
            "pos": [
              7,
              9
            ]
          },
          {
            "type": "BOMB",
            "pos": [
              8,
              9
            ]
          },
          {
            "type": "BOMB",
            "pos": [
              9,
              9
            ]
          },
          {
            "type": "BOMB",
            "pos": [
              9,
              10
            ]
          },
          {
            "type": "BOMB",
            "pos": [
              9,
              11
            ]
          },
          {
            "type": "BOMB",
            "pos": [
              9,
              12
            ]
          },
          {
            "type": "BOMB",
            "pos": [
              9,
              13
            ]
          },
          {
            "type": "BOMB",
            "pos": [
              13,
              3
            ]
          },
          {
            "type": "BOMB",
            "pos": [
              13,
              4
            ]
          },
          {
            "type": "BOMB",
            "pos": [
              13,
              5
            ]
          },
          {
            "type": "BOMB",
            "pos": [
              13,
              6
            ]
          },
          {
            "type": "BOMB",
            "pos": [
              13,
              7
            ]
          },
          {
            "type": "BOMB",
            "pos": [
              13,
              8
            ]
          },
          {
            "type": "BOMB",
            "pos": [
              13,
              9
            ]
          },
          {
            "type": "BOMB",
            "pos": [
              13,
              10
            ]
          },
          {
            "type": "BOMB",
            "pos": [
              13,
              11
            ]
          },
          {
            "type": "BOMB",
            "pos": [
              17,
              3
            ]
          },
          {
            "type": "BOMB",
            "pos": [
              17,
              4
            ]
          },
          {
            "type": "BOMB",
            "pos": [
              17,
              5
            ]
          },
          {
            "type": "BOMB",
            "pos": [
              17,
              6
            ]
          },
          {
            "type": "BOMB",
            "pos": [
              17,
              7
            ]
          },
          {
            "type": "BOMB",
            "pos": [
              17,
              8
            ]
          },
          {
            "type": "BOMB",
            "pos": [
              17,
              9
            ]
          },
          {
            "type": "BOMB",
            "pos": [
              17,
              10
            ]
          },
          {
            "type": "BOMB",
            "pos": [
              17,
              11
            ]
          },
          {
            "type": "BOMB",
            "pos": [
              14,
              3
            ]
          },
          {
            "type": "BOMB",
            "pos": [
              15,
              3
            ]
          },
          {
            "type": "BOMB",
            "pos": [
              16,
              3
            ]
          },
          {
            "type": "BOMB",
            "pos": [
              14,
              11
            ]
          },
          {
            "type": "BOMB",
            "pos": [
              15,
              11
            ]
          },
          {
            "type": "BOMB",
            "pos": [
              16,
              11
            ]
          }
        ],
        "initial_rules": [
          [
            "PUMPKIN",
            "IS",
            "YOU"
          ],
          [
            "SUN",
            "IS",
            "WIN"
          ],
          [
            "CLOUD",
            "IS",
            "PUSH"
          ],
          [
            "BOMB",
            "IS",
            "DEFEAT"
          ]
        ],
        "condition": "default"
      },
      "level_name": "Out of Reach",
      "selection_time": 0.602,
      "trial_index": 31,
      "plugin_version": "1.0.0",
      "time_elapsed": 76526,
      "prolific_pid": null,
      "study_id": null,
      "session_id": null
    },
    {
      "trial_type": "baba-game",
      "participant_id": "P_1751511685551_f4561x7rb",
      "condition_type": "high-prior",
      "level_id": "journey_break",
      "level_name": "Out of Reach",
      "chapter_name": "journey",
      "success": true,
      "completion_reason": "completed",
      "total_time": 6.477,
      "move_count": 31,
      "undo_count": 0,
      "pause_count": 0,
      "remaining_time": 473.52,
      "operation_count": 62,
      "trial_index": 32,
      "plugin_version": "1.0.0",
      "time_elapsed": 84980,
      "prolific_pid": null,
      "study_id": null,
      "session_id": null
    },
    {
      "trial_type": "rating-scale",
      "participant_id": "P_1751511685551_f4561x7rb",
      "rating_type": "difficulty",
      "rating_value": 5,
      "level_name": "Unknown Level",
      "question": "According to your experience, how difficult was last level?",
      "scale_min": 0,
      "scale_max": 10,
      "response_time": 1.67,
      "trial_index": 33,
      "plugin_version": "1.0.0",
      "time_elapsed": 86916,
      "prolific_pid": null,
      "study_id": null,
