{
  "participant_id": "P_1751643957988_wpsehczr5",
  "session_id": "session_1751644502705",
  "experiment_version": "1.0.0",
  "start_time": "1970-01-01T00:00:01.309Z",
  "end_time": "2025-07-04T15:55:02.705Z",
  "total_duration_sec": 544.459,
  "completion_status": "completed",
  "device_info": {
    "browser": "Mozilla/5.0 (Windows NT 10.0; Win64; x64) AppleWebKit/537.36 (KHTML, like Gecko) Chrome/138.0.0.0 Safari/537.36 Edg/138.0.0.0",
    "os": "Win32",
    "screen_resolution": [
      1440,
      900
    ],
    "window_size": [
      1440,
      900
    ]
  },
  "experimental_condition": "low-prior",
  "tasks_completed": [
    "baba_game",
    "digit_span_forward",
    "digit_span_backward",
    "dsst",
    "verbal_fluency",
    "aut",
    "questionnaire"
  ],
  "baba_game_data": [
    {
      "trial_type": "baba-game",
      "participant_id": "P_1751643957988_wpsehczr5",
      "condition_type": "low-prior",
      "trial_index": 8,
      "plugin_version": "1.0.0",
      "time_elapsed": 12402,
      "prolific_pid": null,
      "study_id": null,
      "session_id": null
    },
    {
      "trial_type": "baba-game",
      "participant_id": "P_1751643957988_wpsehczr5",
      "condition_type": "low-prior",
      "trial_index": 14,
      "plugin_version": "1.0.0",
      "time_elapsed": 24466,
      "prolific_pid": null,
      "study_id": null,
      "session_id": null
    },
    {
      "trial_type": "baba-game",
      "participant_id": "P_1751643957988_wpsehczr5",
      "condition_type": "low-prior",
      "trial_index": 21,
      "plugin_version": "1.0.0",
      "time_elapsed": 41070,
      "prolific_pid": null,
      "study_id": null,
      "session_id": null
    },
    {
      "trial_type": "baba-game",
      "participant_id": "P_1751643957988_wpsehczr5",
      "condition_type": "low-prior",
      "trial_index": 27,
      "plugin_version": "1.0.0",
      "time_elapsed": 53398,
      "prolific_pid": null,
      "study_id": null,
      "session_id": null
    },
    {
      "trial_type": "baba-game",
      "participant_id": "P_1751643957988_wpsehczr5",
      "condition_type": "low-prior",
      "trial_index": 33,
      "plugin_version": "1.0.0",
      "time_elapsed": 67089,
      "prolific_pid": null,
      "study_id": null,
      "session_id": null
    },
    {
      "trial_type": "baba-game",
      "participant_id": "P_1751643957988_wpsehczr5",
      "condition_type": "low-prior",
      "trial_index": 39,
      "plugin_version": "1.0.0",
      "time_elapsed": 81965,
      "prolific_pid": null,
      "study_id": null,
      "session_id": null
    },
    {
      "trial_type": "baba-game",
      "participant_id": "P_1751643957988_wpsehczr5",
      "condition_type": "low-prior",
      "trial_index": 45,
      "plugin_version": "1.0.0",
      "time_elapsed": 95537,
      "prolific_pid": null,
      "study_id": null,
      "session_id": null
    },
    {
      "trial_type": "baba-game",
      "participant_id": "P_1751643957988_wpsehczr5",
      "condition_type": "low-prior",
      "trial_index": 51,
      "plugin_version": "1.0.0",
      "time_elapsed": 110199,
      "prolific_pid": null,
      "study_id": null,
      "session_id": null
    }
  ],
  "digit_span_data": {
    "forward": [
      {
        "trial_type": "digit-span",
        "participant_id": "P_1751643957988_wpsehczr5",
        "task_version": "1.0.0",
        "mode": "forward",
        "max_span": 0,
        "total_correct": 0,
        "total_trials": 2,
        "consecutive_errors": 2,
        "trials": [
          {
            "trial_number": 1,
            "span_length": 3,
            "sequence": [
              7,
              8,
              6
            ],
            "user_response": [
              7,
              7,
              7
            ],
            "correct": false,
            "reaction_time": 0.956,
            "consecutive_errors_before": 0,
            "timestamp": 1751644088801
          },
          {
            "trial_number": 2,
            "span_length": 3,
            "sequence": [
              2,
              8,
              4
            ],
            "user_response": [
              2,
              2,
              2
            ],
            "correct": false,
            "reaction_time": 3.027,
            "consecutive_errors_before": 1,
            "timestamp": 1751644098077
          }
        ],
        "response_times": [
          0.956,
          3.027
        ],
        "consecutive_errors_count": 2,
        "task_completion_time": 18.349,
        "audio_used": false,
        "digit_duration": 0.5,
        "trial_index": 59,
        "plugin_version": "1.0.0",
        "time_elapsed": 140086,
        "prolific_pid": null,
        "study_id": null,
        "session_id": null
      }
    ],
    "backward": [
      {
        "trial_type": "digit-span",
        "participant_id": "P_1751643957988_wpsehczr5",
        "task_version": "1.0.0",
        "mode": "backward",
        "max_span": 0,
        "total_correct": 0,
        "total_trials": 2,
        "consecutive_errors": 2,
        "trials": [
          {
            "trial_number": 1,
            "span_length": 2,
            "sequence": [
              3,
              5
            ],
            "user_response": [
              5,
              5
            ],
            "correct": false,
            "reaction_time": 1.65,
            "consecutive_errors_before": 0,
            "timestamp": 1751644105900
          },
          {
            "trial_number": 2,
            "span_length": 2,
            "sequence": [
              8,
              0
            ],
            "user_response": [
              4,
              4
            ],
            "correct": false,
            "reaction_time": 1.176,
            "consecutive_errors_before": 1,
            "timestamp": 1751644110735
          }
        ],
        "response_times": [
          1.65,
          1.176
        ],
        "consecutive_errors_count": 2,
        "task_completion_time": 11.632,
        "audio_used": false,
        "digit_duration": 0.5,
        "trial_index": 61,
        "plugin_version": "1.0.0",
        "time_elapsed": 152744,
        "prolific_pid": null,
        "study_id": null,
        "session_id": null
      }
    ]
  },
  "dsst_data": [
    {
      "trial_type": "dsst",
      "participant_id": "P_1751643957988_wpsehczr5",
      "total_attempted": 87,
      "correct": 10,
      "wrong": 77,
      "used_time": 5.222400000095368,
      "answers": [
        9,
        9,
        9,
        null,
        9,
        9,
        9,
        9,
        9,
        9,
        9,
        null,
        9,
        9,
        9,
        9,
        9,
        9,
        null,
        9,
        9,
        9,
        9,
        9,
        9,
        9,
        9,
        null,
        9,
        9,
        9,
        9,
        9,
        9,
        9,
        9,
        9,
        null,
        9,
        9,
        9,
        9,
        9,
        9,
        9,
        null,
        9,
        9,
        9,
        9,
        9,
        9,
        null,
        9,
        9,
        9,
        9,
        9,
        9,
        9,
        null,
        9,
        9,
        9,
        9,
        9,
        9,
        9,
        null,
        9,
        9,
        9,
        9,
        9,
        9,
        null,
        9,
        9,
        9,
        9,
        9,
        9,
        9,
        null,
        9,
        9,
        9,
        9,
        9,
        9,
        9,
        null,
        9,
        9,
        9,
        9,
        9,
        9,
        null,
        9
      ],
      "correct_flags": [
        true,
        false,
        false,
        false,
        false,
        false,
        false,
        false,
        false,
        false,
        false,
        false,
        false,
        false,
        true,
        false,
        false,
        true,
        false,
        false,
        false,
        false,
        false,
        false,
        false,
        false,
        false,
        false,
        false,
        false,
        false,
        false,
        true,
        false,
        false,
        false,
        false,
        false,
        false,
        false,
        false,
        false,
        false,
        false,
        false,
        false,
        false,
        false,
        false,
        false,
        false,
        true,
        false,
        false,
        false,
        false,
        false,
        false,
        false,
        false,
        false,
        false,
        false,
        false,
        false,
        false,
        false,
        false,
        false,
        true,
        false,
        false,
        false,
        true,
        false,
        false,
        true,
        false,
        false,
        true,
        false,
        false,
        false,
        false,
        false,
        false,
        false,
        false,
        false,
        false,
        false,
        false,
        false,
        false,
        false,
        false,
        false,
        false,
        false,
        true
      ],
      "reaction_times": [
        1301.2000000476837,
        502.7999999523163,
        22.40000009536743,
        null,
        3.299999952316284,
        7.200000047683716,
        34.799999952316284,
        19.40000009536743,
        18,
        20.90000009536743,
        22.299999952316284,
        null,
        7.1000001430511475,
        2.799999952316284,
        32.700000047683716,
        18.5,
        19.40000009536743,
        18.799999952316284,
        null,
        3.200000047683716,
        2.6999998092651367,
        33.799999952316284,
        18.5,
        21.90000009536743,
        19,
        19.200000047683716,
        23.899999856948853,
        null,
        1.9000000953674316,
        3,
        40.60000014305115,
        18.899999856948853,
        18.90000009536743,
        22.90000009536743,
        20.200000047683716,
        20.299999952316284,
        23.5,
        null,
        2.5999999046325684,
        6.700000047683716,
        41.299999952316284,
        24.600000143051147,
        22.399999856948853,
        18.799999952316284,
        18.5,
        null,
        2.9000000953674316,
        2.799999952316284,
        34.69999980926514,
        18.40000009536743,
        18.299999952316284,
        22.200000047683716,
        null,
        3.299999952316284,
        7.5,
        39.299999952316284,
        19.09999990463257,
        23.40000009536743,
        18.90000009536743,
        18.40000009536743,
        null,
        2.6000001430511475,
        7.400000095367432,
        37.60000014305115,
        19.100000143051147,
        21.800000190734863,
        20.199999809265137,
        19.5,
        null,
        9.100000143051147,
        3.200000047683716,
        34.5,
        22.299999952316284,
        18.09999990463257,
        19,
        null,
        3.200000047683716,
        3.299999952316284,
        34.200000047683716,
        18.5,
        23,
        23.40000009536743,
        19.09999990463257,
        null,
        3.9000000953674316,
        5.1000001430511475,
        35.799999952316284,
        18.799999952316284,
        22.59999990463257,
        18.200000047683716,
        18.799999952316284,
        null,
        7.400000095367432,
        8.700000047683716,
        33.30000019073486,
        18.09999990463257,
        18.299999952316284,
        18,
        null,
        3
      ],
      "trial_index": 64,
      "plugin_version": "1.0.0",
      "time_elapsed": 166611,
      "prolific_pid": null,
      "study_id": null,
      "session_id": null
    }
  ],
  "verbal_fluency_data": [
    {
      "trial_type": "verbal-fluency",
      "participant_id": "P_1751643957988_wpsehczr5",
      "practice_raw": "1,1,1",
      "practice_list": [
        "1",
        "1",
        "1"
      ],
      "test_raw": "",
      "test_list": [],
      "test_count": 0,
      "used_time": 60,
      "word_timestamps": [],
      "response_intervals": [],
      "response_analysis": {
        "average_interval": 0,
        "max_interval": 0,
        "std_deviation": 0
      },
      "first_third_count": 0,
      "middle_third_count": 0,
      "last_third_count": 0,
      "task": "verbal_fluency",
      "trial_index": 68,
      "plugin_version": "1.0.0",
      "time_elapsed": 497315,
      "prolific_pid": null,
      "study_id": null,
      "session_id": null
    }
  ],
  "aut_data": [
    {
      "trial_type": "aut",
      "participant_id": "P_1751643957988_wpsehczr5",
      "practice_raw": "eat, drink",
      "practice_list": [
        "eat",
        "drink"
      ],
      "responses": [
        {
          "object": "Brick",
          "answer": "",
          "idea_count": 0,
          "rt": 120.01459999990463,
          "idea_timestamps": [],
          "response_intervals": [],
          "response_analysis": {
            "average_interval": 0,
            "max_interval": 0,
            "std_deviation": 0,
            "first_third_count": 0,
            "middle_third_count": 0,
            "last_third_count": 0
          }
        },
        {
          "object": "Bedsheet",
          "answer": "",
          "idea_count": 0,
          "rt": 120.00020000004768,
          "idea_timestamps": [],
          "response_intervals": [],
          "response_analysis": {
            "average_interval": 0,
            "max_interval": 0,
            "std_deviation": 0,
            "first_third_count": 0,
            "middle_third_count": 0,
            "last_third_count": 0
          }
        }
      ],
      "task": "aut",
      "trial_index": 66,
      "plugin_version": "1.0.0",
      "time_elapsed": 424081,
      "prolific_pid": null,
      "study_id": null,
      "session_id": null
    }
  ],
  "questionnaire_data": [
    {
      "trial_type": "html-keyboard-response",
      "participant_id": "P_1751643957988_wpsehczr5",
      "questionId": 1,
      "questionSource": "CPI",
      "questionType": "likert",
      "is_attention_check": false,
      "correct_answer": null,
      "rt": 500641.90000009537,
      "response": 2,
      "question_id": 1,
      "question_source": "CPI",
      "question_type": "likert",
      "question_response": {
        "Q1": 3
      },
      "is_correct": null,
      "trial_index": 71,
      "plugin_version": "2.1.0",
      "time_elapsed": 500142,
      "prolific_pid": null,
      "study_id": null,
      "session_id": null
    },
    {
      "trial_type": "html-keyboard-response",
      "participant_id": "P_1751643957988_wpsehczr5",
      "questionId": 2,
      "questionSource": "CPI",
      "questionType": "likert",
      "is_attention_check": false,
      "correct_answer": null,
      "rt": 501706.2000000477,
      "response": 2,
      "question_id": 2,
      "question_source": "CPI",
      "question_type": "likert",
      "question_response": {
        "Q2": 3
      },
      "is_correct": null,
      "trial_index": 72,
      "plugin_version": "2.1.0",
      "time_elapsed": 501207,
      "prolific_pid": null,
      "study_id": null,
      "session_id": null
    },
    {
      "trial_type": "html-keyboard-response",
      "participant_id": "P_1751643957988_wpsehczr5",
      "questionId": 3,
      "questionSource": "CPI",
      "questionType": "likert",
      "is_attention_check": false,
      "correct_answer": null,
      "rt": 502585.90000009537,
      "response": 2,
      "question_id": 3,
      "question_source": "CPI",
      "question_type": "likert",
      "question_response": {
        "Q3": 3
      },
      "is_correct": null,
      "trial_index": 73,
      "plugin_version": "2.1.0",
      "time_elapsed": 502086,
      "prolific_pid": null,
      "study_id": null,
      "session_id": null
    },
    {
      "trial_type": "html-keyboard-response",
      "participant_id": "P_1751643957988_wpsehczr5",
      "questionId": 4,
      "questionSource": "CPI",
      "questionType": "likert",
      "is_attention_check": false,
      "correct_answer": null,
      "rt": 503487.60000014305,
      "response": 2,
      "question_id": 4,
      "question_source": "CPI",
      "question_type": "likert",
      "question_response": {
        "Q4": 3
      },
      "is_correct": null,
      "trial_index": 74,
      "plugin_version": "2.1.0",
      "time_elapsed": 502988,
      "prolific_pid": null,
      "study_id": null,
      "session_id": null
    },
    {
      "trial_type": "html-keyboard-response",
      "participant_id": "P_1751643957988_wpsehczr5",
      "questionId": 5,
      "questionSource": "CSE",
      "questionType": "likert",
      "is_attention_check": false,
      "correct_answer": null,
      "rt": 504370.5,
      "response": 2,
      "question_id": 5,
      "question_source": "CSE",
      "question_type": "likert",
      "question_response": {
        "Q5": 3
      },
      "is_correct": null,
      "trial_index": 75,
      "plugin_version": "2.1.0",
      "time_elapsed": 503871,
      "prolific_pid": null,
      "study_id": null,
      "session_id": null
    },
    {
      "trial_type": "html-keyboard-response",
      "participant_id": "P_1751643957988_wpsehczr5",
      "questionId": 6,
      "questionSource": "CSE",
      "questionType": "likert",
      "is_attention_check": false,
      "correct_answer": null,
      "rt": 505334,
      "response": 2,
      "question_id": 6,
      "question_source": "CSE",
      "question_type": "likert",
      "question_response": {
        "Q6": 3
      },
      "is_correct": null,
      "trial_index": 76,
      "plugin_version": "2.1.0",
      "time_elapsed": 504834,
      "prolific_pid": null,
      "study_id": null,
      "session_id": null
    },
    {
      "trial_type": "html-keyboard-response",
      "participant_id": "P_1751643957988_wpsehczr5",
      "questionId": 7,
      "questionSource": "CSE",
      "questionType": "likert",
      "is_attention_check": false,
      "correct_answer": null,
      "rt": 506272.5,
      "response": 2,
      "question_id": 7,
      "question_source": "CSE",
      "question_type": "likert",
      "question_response": {
        "Q7": 3
      },
      "is_correct": null,
      "trial_index": 77,
      "plugin_version": "2.1.0",
      "time_elapsed": 505773,
      "prolific_pid": null,
      "study_id": null,
      "session_id": null
    },
    {
      "trial_type": "html-keyboard-response",
      "participant_id": "P_1751643957988_wpsehczr5",
      "questionId": 8,
      "questionSource": "CSE",
      "questionType": "likert",
      "is_attention_check": false,
      "correct_answer": null,
      "rt": 507236.2999999523,
      "response": 2,
      "question_id": 8,
      "question_source": "CSE",
      "question_type": "likert",
      "question_response": {
        "Q8": 3
      },
      "is_correct": null,
      "trial_index": 78,
      "plugin_version": "2.1.0",
      "time_elapsed": 506737,
      "prolific_pid": null,
      "study_id": null,
      "session_id": null
    },
    {
      "trial_type": "html-keyboard-response",
      "participant_id": "P_1751643957988_wpsehczr5",
      "questionId": 9,
      "questionSource": "CMS",
      "questionType": "likert",
      "is_attention_check": false,
      "correct_answer": null,
      "rt": 508183.10000014305,
      "response": 2,
      "question_id": 9,
      "question_source": "CMS",
      "question_type": "likert",
      "question_response": {
        "Q9": 3
      },
      "is_correct": null,
      "trial_index": 79,
      "plugin_version": "2.1.0",
      "time_elapsed": 507684,
      "prolific_pid": null,
      "study_id": null,
      "session_id": null
    },
    {
      "trial_type": "html-keyboard-response",
      "participant_id": "P_1751643957988_wpsehczr5",
      "questionId": 10,
      "questionSource": "CMS",
      "questionType": "likert",
      "is_attention_check": false,
      "correct_answer": null,
      "rt": 509147.2000000477,
      "response": 2,
      "question_id": 10,
      "question_source": "CMS",
      "question_type": "likert",
      "question_response": {
        "Q10": 3
      },
      "is_correct": null,
      "trial_index": 80,
      "plugin_version": "2.1.0",
      "time_elapsed": 508648,
      "prolific_pid": null,
      "study_id": null,
      "session_id": null
    },
    {
      "trial_type": "html-keyboard-response",
      "participant_id": "P_1751643957988_wpsehczr5",
      "questionId": 11,
      "questionSource": "CMS",
      "questionType": "likert",
      "is_attention_check": false,
      "correct_answer": null,
      "rt": 510056.60000014305,
      "response": 2,
      "question_id": 11,
      "question_source": "CMS",
      "question_type": "likert",
      "question_response": {
        "Q11": 3
      },
      "is_correct": null,
      "trial_index": 81,
      "plugin_version": "2.1.0",
      "time_elapsed": 509557,
      "prolific_pid": null,
      "study_id": null,
      "session_id": null
    },
    {
      "trial_type": "html-keyboard-response",
      "participant_id": "P_1751643957988_wpsehczr5",
      "questionId": 12,
      "questionSource": "CMS",
      "questionType": "likert",
      "is_attention_check": false,
      "correct_answer": null,
      "rt": 511314.7000000477,
      "response": 2,
      "question_id": 12,
      "question_source": "CMS",
      "question_type": "likert",
      "question_response": {
        "Q12": 3
      },
      "is_correct": null,
      "trial_index": 82,
      "plugin_version": "2.1.0",
      "time_elapsed": 510815,
      "prolific_pid": null,
      "study_id": null,
      "session_id": null
    },
    {
      "trial_type": "html-keyboard-response",
      "participant_id": "P_1751643957988_wpsehczr5",
      "questionId": 13,
      "questionSource": "CMS",
      "questionType": "likert",
      "is_attention_check": false,
      "correct_answer": null,
      "rt": 512299.90000009537,
      "response": 2,
      "question_id": 13,
      "question_source": "CMS",
      "question_type": "likert",
      "question_response": {
        "Q13": 3
      },
      "is_correct": null,
      "trial_index": 83,
      "plugin_version": "2.1.0",
      "time_elapsed": 511800,
      "prolific_pid": null,
      "study_id": null,
      "session_id": null
    },
    {
      "trial_type": "html-keyboard-response",
      "participant_id": "P_1751643957988_wpsehczr5",
      "questionId": 14,
      "questionSource": "CMS",
      "questionType": "likert",
      "is_attention_check": false,
      "correct_answer": null,
      "rt": 513230.60000014305,
      "response": 2,
      "question_id": 14,
      "question_source": "CMS",
      "question_type": "likert",
      "question_response": {
        "Q14": 3
      },
      "is_correct": null,
      "trial_index": 84,
      "plugin_version": "2.1.0",
      "time_elapsed": 512731,
      "prolific_pid": null,
      "study_id": null,
      "session_id": null
    },
    {
      "trial_type": "html-keyboard-response",
      "participant_id": "P_1751643957988_wpsehczr5",
      "questionId": 15,
      "questionSource": "CMS",
      "questionType": "likert",
      "is_attention_check": false,
      "correct_answer": null,
      "rt": 514480,
      "response": 2,
      "question_id": 15,
      "question_source": "CMS",
      "question_type": "likert",
      "question_response": {
        "Q15": 3
      },
      "is_correct": null,
      "trial_index": 85,
      "plugin_version": "2.1.0",
      "time_elapsed": 513981,
      "prolific_pid": null,
      "study_id": null,
      "session_id": null
    },
    {
      "trial_type": "html-keyboard-response",
      "participant_id": "P_1751643957988_wpsehczr5",
      "questionId": 16,
      "questionSource": "CMS",
      "questionType": "likert",
      "is_attention_check": false,
      "correct_answer": null,
      "rt": 515536.5,
      "response": 2,
      "question_id": 16,
      "question_source": "CMS",
      "question_type": "likert",
      "question_response": {
        "Q16": 3
      },
      "is_correct": null,
      "trial_index": 86,
      "plugin_version": "2.1.0",
      "time_elapsed": 515037,
      "prolific_pid": null,
      "study_id": null,
      "session_id": null
    },
    {
      "trial_type": "html-keyboard-response",
      "participant_id": "P_1751643957988_wpsehczr5",
      "questionId": 17,
      "questionSource": "CMS",
      "questionType": "likert",
      "is_attention_check": false,
      "correct_answer": null,
      "rt": 516761.7999999523,
      "response": 2,
      "question_id": 17,
      "question_source": "CMS",
      "question_type": "likert",
      "question_response": {
        "Q17": 3
      },
      "is_correct": null,
      "trial_index": 87,
      "plugin_version": "2.1.0",
      "time_elapsed": 516262,
      "prolific_pid": null,
      "study_id": null,
      "session_id": null
    },
    {
      "trial_type": "html-keyboard-response",
      "participant_id": "P_1751643957988_wpsehczr5",
      "questionId": "attention_check_1",
      "questionSource": "ATTENTION_CHECK",
      "questionType": "likert",
      "is_attention_check": true,
      "correct_answer": 5,
      "rt": 518075.10000014305,
      "response": 4,
      "question_id": "attention_check_1",
      "question_source": "ATTENTION_CHECK",
      "question_type": "likert",
      "question_response": {
        "Qattention_check_1": 5
      },
      "is_correct": true,
      "trial_index": 88,
      "plugin_version": "2.1.0",
      "time_elapsed": 517576,
      "prolific_pid": null,
      "study_id": null,
      "session_id": null
    },
    {
      "trial_type": "html-keyboard-response",
      "participant_id": "P_1751643957988_wpsehczr5",
      "questionId": 18,
      "questionSource": "CMS",
      "questionType": "likert",
      "is_attention_check": false,
      "correct_answer": null,
      "rt": 519086.2000000477,
      "response": 2,
      "question_id": 18,
      "question_source": "CMS",
      "question_type": "likert",
      "question_response": {
        "Q18": 3
      },
      "is_correct": null,
      "trial_index": 89,
      "plugin_version": "2.1.0",
      "time_elapsed": 518587,
      "prolific_pid": null,
      "study_id": null,
      "session_id": null
    },
    {
      "trial_type": "html-keyboard-response",
      "participant_id": "P_1751643957988_wpsehczr5",
      "questionId": 19,
      "questionSource": "AARC",
      "questionType": "likert",
      "is_attention_check": false,
      "correct_answer": null,
      "rt": 520925.5,
      "response": 2,
      "question_id": 19,
      "question_source": "AARC",
      "question_type": "likert",
      "question_response": {
        "Q19": 3
      },
      "is_correct": null,
      "trial_index": 91,
      "plugin_version": "2.1.0",
      "time_elapsed": 520426,
      "prolific_pid": null,
      "study_id": null,
      "session_id": null
    },
    {
      "trial_type": "html-keyboard-response",
      "participant_id": "P_1751643957988_wpsehczr5",
      "questionId": 20,
      "questionSource": "AARC",
      "questionType": "likert",
      "is_attention_check": false,
      "correct_answer": null,
      "rt": 521785,
      "response": 2,
      "question_id": 20,
      "question_source": "AARC",
      "question_type": "likert",
      "question_response": {
        "Q20": 3
      },
      "is_correct": null,
      "trial_index": 92,
      "plugin_version": "2.1.0",
      "time_elapsed": 521285,
      "prolific_pid": null,
      "study_id": null,
      "session_id": null
    },
    {
      "trial_type": "html-keyboard-response",
      "participant_id": "P_1751643957988_wpsehczr5",
      "questionId": 21,
      "questionSource": "AARC",
      "questionType": "likert",
      "is_attention_check": false,
      "correct_answer": null,
      "rt": 522640.5,
      "response": 2,
      "question_id": 21,
      "question_source": "AARC",
      "question_type": "likert",
      "question_response": {
        "Q21": 3
      },
      "is_correct": null,
      "trial_index": 93,
      "plugin_version": "2.1.0",
      "time_elapsed": 522141,
      "prolific_pid": null,
      "study_id": null,
      "session_id": null
    },
    {
      "trial_type": "html-keyboard-response",
      "participant_id": "P_1751643957988_wpsehczr5",
      "questionId": 22,
      "questionSource": "AARC",
      "questionType": "likert",
      "is_attention_check": false,
      "correct_answer": null,
      "rt": 523603.60000014305,
      "response": 2,
      "question_id": 22,
      "question_source": "AARC",
      "question_type": "likert",
      "question_response": {
        "Q22": 3
      },
      "is_correct": null,
      "trial_index": 94,
      "plugin_version": "2.1.0",
      "time_elapsed": 523104,
      "prolific_pid": null,
      "study_id": null,
      "session_id": null
    },
    {
      "trial_type": "html-keyboard-response",
      "participant_id": "P_1751643957988_wpsehczr5",
      "questionId": 23,
      "questionSource": "AARC",
      "questionType": "likert",
      "is_attention_check": false,
      "correct_answer": null,
      "rt": 524517,
      "response": 2,
      "question_id": 23,
      "question_source": "AARC",
      "question_type": "likert",
      "question_response": {
        "Q23": 3
      },
      "is_correct": null,
      "trial_index": 95,
      "plugin_version": "2.1.0",
      "time_elapsed": 524017,
      "prolific_pid": null,
      "study_id": null,
      "session_id": null
    },
    {
      "trial_type": "html-keyboard-response",
      "participant_id": "P_1751643957988_wpsehczr5",
      "questionId": 24,
      "questionSource": "AARC",
      "questionType": "likert",
      "is_attention_check": false,
      "correct_answer": null,
      "rt": 525472.7999999523,
      "response": 2,
      "question_id": 24,
      "question_source": "AARC",
      "question_type": "likert",
      "question_response": {
        "Q24": 3
      },
      "is_correct": null,
      "trial_index": 96,
      "plugin_version": "2.1.0",
      "time_elapsed": 524973,
      "prolific_pid": null,
      "study_id": null,
      "session_id": null
    },
    {
      "trial_type": "html-keyboard-response",
      "participant_id": "P_1751643957988_wpsehczr5",
      "questionId": 25,
      "questionSource": "AARC",
      "questionType": "likert",
      "is_attention_check": false,
      "correct_answer": null,
      "rt": 526411.7000000477,
      "response": 2,
      "question_id": 25,
      "question_source": "AARC",
      "question_type": "likert",
      "question_response": {
        "Q25": 3
      },
      "is_correct": null,
      "trial_index": 97,
      "plugin_version": "2.1.0",
      "time_elapsed": 525912,
      "prolific_pid": null,
      "study_id": null,
      "session_id": null
    },
    {
      "trial_type": "html-keyboard-response",
      "participant_id": "P_1751643957988_wpsehczr5",
      "questionId": 26,
      "questionSource": "AARC",
      "questionType": "likert",
      "is_attention_check": false,
      "correct_answer": null,
      "rt": 527304.4000000954,
      "response": 2,
      "question_id": 26,
      "question_source": "AARC",
      "question_type": "likert",
      "question_response": {
        "Q26": 3
      },
      "is_correct": null,
      "trial_index": 98,
      "plugin_version": "2.1.0",
      "time_elapsed": 526805,
      "prolific_pid": null,
      "study_id": null,
      "session_id": null
    },
    {
      "trial_type": "html-keyboard-response",
      "participant_id": "P_1751643957988_wpsehczr5",
      "questionId": 27,
      "questionSource": "AARC",
      "questionType": "likert",
      "is_attention_check": false,
      "correct_answer": null,
      "rt": 528812.600000143,
      "response": 2,
      "question_id": 27,
      "question_source": "AARC",
      "question_type": "likert",
      "question_response": {
        "Q27": 3
      },
      "is_correct": null,
      "trial_index": 99,
      "plugin_version": "2.1.0",
      "time_elapsed": 528313,
      "prolific_pid": null,
      "study_id": null,
      "session_id": null
    },
    {
      "trial_type": "html-keyboard-response",
      "participant_id": "P_1751643957988_wpsehczr5",
      "questionId": "attention_check_2",
      "questionSource": "ATTENTION_CHECK",
      "questionType": "likert",
      "is_attention_check": true,
      "correct_answer": 2,
      "rt": 530460.2999999523,
      "response": 1,
      "question_id": "attention_check_2",
      "question_source": "ATTENTION_CHECK",
      "question_type": "likert",
      "question_response": {
        "Qattention_check_2": 2
      },
      "is_correct": true,
      "trial_index": 100,
      "plugin_version": "2.1.0",
      "time_elapsed": 529961,
      "prolific_pid": null,
      "study_id": null,
      "session_id": null
    },
    {
      "trial_type": "html-keyboard-response",
      "participant_id": "P_1751643957988_wpsehczr5",
      "questionId": 28,
      "questionSource": "AARC",
      "questionType": "likert",
      "is_attention_check": false,
      "correct_answer": null,
      "rt": 531759.9000000954,
      "response": 2,
      "question_id": 28,
      "question_source": "AARC",
      "question_type": "likert",
      "question_response": {
        "Q28": 3
      },
      "is_correct": null,
      "trial_index": 101,
      "plugin_version": "2.1.0",
      "time_elapsed": 531260,
      "prolific_pid": null,
      "study_id": null,
      "session_id": null
    },
    {
      "trial_type": "html-keyboard-response",
      "participant_id": "P_1751643957988_wpsehczr5",
      "questionId": 29,
      "questionSource": "DEM",
      "questionType": "text",
      "rt": 535201.4000000954,
      "response": "88",
      "question_id": 29,
      "question_source": "DEM",
      "question_type": "text",
      "trial_index": 103,
      "plugin_version": "2.1.0",
      "time_elapsed": 534702,
      "prolific_pid": null,
      "study_id": null,
      "session_id": null
    },
    {
      "trial_type": "html-keyboard-response",
      "participant_id": "P_1751643957988_wpsehczr5",
      "questionId": 34,
      "questionSource": "DEM",
      "questionType": "option",
      "is_attention_check": false,
      "correct_answer": null,
      "rt": 536987,
      "response": 2,
      "question_id": 34,
      "question_source": "DEM",
      "question_type": "option",
      "question_response": {
        "Q34": "I don't want to say"
      },
      "is_correct": null,
      "trial_index": 104,
      "plugin_version": "2.1.0",
      "time_elapsed": 536487,
      "prolific_pid": null,
      "study_id": null,
      "session_id": null
    },
    {
      "trial_type": "html-keyboard-response",
      "participant_id": "P_1751643957988_wpsehczr5",
      "questionId": 30,
      "questionSource": "DEM",
      "questionType": "option",
      "is_attention_check": false,
      "correct_answer": null,
      "rt": 538040,
      "response": 3,
      "question_id": 30,
      "question_source": "DEM",
      "question_type": "option",
      "question_response": {
        "Q30": "Bachelor's degree or above"
      },
      "is_correct": null,
      "trial_index": 105,
      "plugin_version": "2.1.0",
      "time_elapsed": 537540,
      "prolific_pid": null,
      "study_id": null,
      "session_id": null
    },
    {
      "trial_type": "html-keyboard-response",
      "participant_id": "P_1751643957988_wpsehczr5",
      "questionId": 31,
      "questionSource": "DEM",
      "questionType": "option",
      "is_attention_check": false,
      "correct_answer": null,
      "rt": 540176.7000000477,
      "response": 4,
      "question_id": 31,
      "question_source": "DEM",
      "question_type": "option",
      "question_response": {
        "Q31": "Excellent"
      },
      "is_correct": null,
      "trial_index": 106,
      "plugin_version": "2.1.0",
      "time_elapsed": 539677,
      "prolific_pid": null,
      "study_id": null,
      "session_id": null
    },
    {
      "trial_type": "html-keyboard-response",
      "participant_id": "P_1751643957988_wpsehczr5",
      "questionId": 32,
      "questionSource": "DEM",
      "questionType": "text",
      "rt": 543093,
      "response": "88",
      "question_id": 32,
      "question_source": "DEM",
      "question_type": "text",
      "trial_index": 107,
      "plugin_version": "2.1.0",
      "time_elapsed": 542594,
      "prolific_pid": null,
      "study_id": null,
      "session_id": null
    },
    {
      "trial_type": "html-keyboard-response",
      "participant_id": "P_1751643957988_wpsehczr5",
      "questionId": 33,
      "questionSource": "DEM",
      "questionType": "likert",
      "is_attention_check": false,
      "correct_answer": null,
      "rt": 544958.600000143,
      "response": 3,
      "question_id": 33,
      "question_source": "DEM",
      "question_type": "likert",
      "question_response": {
        "Q33": 4
      },
      "is_correct": null,
      "trial_index": 108,
      "plugin_version": "2.1.0",
      "time_elapsed": 544459,
      "prolific_pid": null,
      "study_id": null,
      "session_id": null
    }
  ],
  "completed_levels": {
    "tutorial": [
      0,
      1
    ],
    "journey": [
      0,
      1,
      2,
      3,
      4,
      5
    ]
  },
  "unlocked_levels": {
    "tutorial": 2,
    "journey": 6
  },
  "player_feedback_data": []
}