{
  "participant_id": "P_1751518729067_jobijgfae",
  "session_id": "session_1751518958712",
  "experiment_version": "1.0.0",
  "start_time": "1970-01-01T00:00:01.217Z",
  "end_time": "2025-07-03T05:02:38.712Z",
  "total_duration_sec": 229.386,
  "completion_status": "completed",
  "device_info": {
    "browser": "Mozilla/5.0 (Windows NT 10.0; Win64; x64) AppleWebKit/537.36 (KHTML, like Gecko) Chrome/138.0.0.0 Safari/537.36 Edg/138.0.0.0",
    "os": "Win32",
    "screen_resolution": [
      1440,
      900
    ],
    "window_size": [
      1440,
      900
    ]
  },
  "experimental_condition": "high-prior",
  "tasks_completed": [
    "baba_game",
    "digit_span_forward",
    "digit_span_backward",
    "dsst",
    "verbal_fluency",
    "aut",
    "questionnaire"
  ],
  "baba_game_data": [
    {
      "trial_type": "baba-game",
      "participant_id": "P_1751518729067_jobijgfae",
      "condition_type": "high-prior",
      "level_id": "tutorial_1",
      "level_name": "Who are you?",
      "chapter_name": "tutorial",
      "success": true,
      "completion_reason": "completed",
      "total_time": 1.214,
      "move_count": 6,
      "undo_count": 0,
      "pause_count": 0,
      "remaining_time": 478.785,
      "operation_count": 12,
      "trial_index": 6,
      "plugin_version": "1.0.0",
      "time_elapsed": 10254,
      "prolific_pid": null,
      "study_id": null,
      "session_id": null
    },
    {
      "trial_type": "baba-game",
      "participant_id": "P_1751518729067_jobijgfae",
      "condition_type": "high-prior",
      "level_id": "tutorial_2",
      "level_name": "Rule Maker",
      "chapter_name": "tutorial",
      "success": true,
      "completion_reason": "completed",
      "total_time": 5.295,
      "move_count": 26,
      "undo_count": 0,
      "pause_count": 0,
      "remaining_time": 474.705,
      "operation_count": 52,
      "trial_index": 11,
      "plugin_version": "1.0.0",
      "time_elapsed": 23645,
      "prolific_pid": null,
      "study_id": null,
      "session_id": null
    },
    {
      "trial_type": "baba-game",
      "participant_id": "P_1751518729067_jobijgfae",
      "condition_type": "high-prior",
      "level_id": "journey_environment",
      "level_name": "Grass Yard",
      "chapter_name": "journey",
      "success": true,
      "completion_reason": "completed",
      "total_time": 7.049,
      "move_count": 33,
      "undo_count": 0,
      "pause_count": 0,
      "remaining_time": 472.949,
      "operation_count": 66,
      "trial_index": 17,
      "plugin_version": "1.0.0",
      "time_elapsed": 39315,
      "prolific_pid": null,
      "study_id": null,
      "session_id": null
    },
    {
      "trial_type": "baba-game",
      "participant_id": "P_1751518729067_jobijgfae",
      "condition_type": "high-prior",
      "level_id": "journey_understandproperty",
      "level_name": "Bridge Building",
      "chapter_name": "journey",
      "success": true,
      "completion_reason": "completed",
      "total_time": 7.169,
      "move_count": 28,
      "undo_count": 0,
      "pause_count": 0,
      "remaining_time": 472.83,
      "operation_count": 56,
      "trial_index": 22,
      "plugin_version": "1.0.0",
      "time_elapsed": 55501,
      "prolific_pid": null,
      "study_id": null,
      "session_id": null
    },
    {
      "trial_type": "baba-game",
      "participant_id": "P_1751518729067_jobijgfae",
      "condition_type": "high-prior",
      "level_id": "journey_switchidentity",
      "level_name": "Locked in",
      "chapter_name": "journey",
      "success": true,
      "completion_reason": "completed",
      "total_time": 6.689,
      "move_count": 30,
      "undo_count": 0,
      "pause_count": 0,
      "remaining_time": 473.31,
      "operation_count": 60,
      "trial_index": 27,
      "plugin_version": "1.0.0",
      "time_elapsed": 68841,
      "prolific_pid": null,
      "study_id": null,
      "session_id": null
    },
    {
      "trial_type": "baba-game",
      "participant_id": "P_1751518729067_jobijgfae",
      "condition_type": "high-prior",
      "level_id": "journey_break",
      "level_name": "Out of Reach",
      "chapter_name": "journey",
      "success": true,
      "completion_reason": "completed",
      "total_time": 5.874,
      "move_count": 31,
      "undo_count": 0,
      "pause_count": 0,
      "remaining_time": 474.124,
      "operation_count": 62,
      "trial_index": 32,
      "plugin_version": "1.0.0",
      "time_elapsed": 81849,
      "prolific_pid": null,
      "study_id": null,
      "session_id": null
    },
    {
      "trial_type": "baba-game",
      "participant_id": "P_1751518729067_jobijgfae",
      "condition_type": "high-prior",
      "level_id": "journey_grammar",
      "level_name": "Feeling Dangerous",
      "chapter_name": "journey",
      "success": true,
      "completion_reason": "completed",
      "total_time": 6.304,
      "move_count": 26,
      "undo_count": 0,
      "pause_count": 0,
      "remaining_time": 473.695,
      "operation_count": 52,
      "trial_index": 37,
      "plugin_version": "1.0.0",
      "time_elapsed": 95061,
      "prolific_pid": null,
      "study_id": null,
      "session_id": null
    },
    {
      "trial_type": "baba-game",
      "participant_id": "P_1751518729067_jobijgfae",
      "condition_type": "high-prior",
      "level_id": "journey_combination",
      "level_name": "Novice Locksmith",
      "chapter_name": "journey",
      "success": true,
      "completion_reason": "completed",
      "total_time": 10.596,
      "move_count": 32,
      "undo_count": 3,
      "pause_count": 0,
      "remaining_time": 469.403,
      "operation_count": 63,
      "trial_index": 42,
      "plugin_version": "1.0.0",
      "time_elapsed": 113190,
      "prolific_pid": null,
      "study_id": null,
      "session_id": null
    }
  ],
  "digit_span_data": {
    "forward": [
      {
        "trial_type": "digit-span",
        "participant_id": "P_1751518729067_jobijgfae",
        "task_version": "1.0.0",
        "mode": "forward",
        "max_span": 0,
        "total_correct": 0,
        "total_trials": 2,
        "consecutive_errors": 2,
        "trials": [
          {
            "trial_number": 1,
            "span_length": 3,
            "sequence": [
              3,
              5,
              2
            ],
            "user_response": [
              1,
              1,
              1
            ],
            "correct": false,
            "reaction_time": 0.823,
            "consecutive_errors_before": 0,
            "timestamp": 1751518857180
          },
          {
            "trial_number": 2,
            "span_length": 3,
            "sequence": [
              7,
              3,
              9
            ],
            "user_response": [
              1,
              1,
              1
            ],
            "correct": false,
            "reaction_time": 0.869,
            "consecutive_errors_before": 1,
            "timestamp": 1751518862525
          }
        ],
        "response_times": [
          0.823,
          0.869
        ],
        "consecutive_errors_count": 2,
        "task_completion_time": 12.369,
        "audio_used": false,
        "digit_duration": 0.5,
        "trial_index": 48,
        "plugin_version": "1.0.0",
        "time_elapsed": 133457,
        "prolific_pid": null,
        "study_id": null,
        "session_id": null
      }
    ],
    "backward": [
      {
        "trial_type": "digit-span",
        "participant_id": "P_1751518729067_jobijgfae",
        "task_version": "1.0.0",
        "mode": "backward",
        "max_span": 0,
        "total_correct": 0,
        "total_trials": 2,
        "consecutive_errors": 2,
        "trials": [
          {
            "trial_number": 1,
            "span_length": 2,
            "sequence": [
              9,
              6
            ],
            "user_response": [
              2,
              2
            ],
            "correct": false,
            "reaction_time": 0.651,
            "consecutive_errors_before": 0,
            "timestamp": 1751518868036
          },
          {
            "trial_number": 2,
            "span_length": 2,
            "sequence": [
              9,
              1
            ],
            "user_response": [
              2,
              2
            ],
            "correct": false,
            "reaction_time": 0.781,
            "consecutive_errors_before": 1,
            "timestamp": 1751518871838
          }
        ],
        "response_times": [
          0.651,
          0.781
        ],
        "consecutive_errors_count": 2,
        "task_completion_time": 8.281,
        "audio_used": false,
        "digit_duration": 0.5,
        "trial_index": 50,
        "plugin_version": "1.0.0",
        "time_elapsed": 142769,
        "prolific_pid": null,
        "study_id": null,
        "session_id": null
      }
    ]
  },
  "dsst_data": [
    {
      "trial_type": "dsst",
      "participant_id": "P_1751518729067_jobijgfae",
      "total_attempted": 100,
      "correct": 21,
      "wrong": 79,
      "answers": [
        1,
        3,
        5,
        3,
        7,
        4,
        1,
        1,
        1,
        1,
        1,
        1,
        1,
        1,
        1,
        1,
        1,
        1,
        1,
        1,
        1,
        1,
        1,
        1,
        1,
        1,
        1,
        1,
        1,
        1,
        1,
        1,
        1,
        1,
        1,
        1,
        1,
        1,
        1,
        1,
        1,
        1,
        1,
        1,
        1,
        1,
        1,
        1,
        1,
        1,
        1,
        1,
        1,
        1,
        1,
        1,
        1,
        1,
        1,
        1,
        1,
        1,
        1,
        1,
        1,
        1,
        1,
        1,
        1,
        1,
        1,
        1,
        1,
        1,
        1,
        1,
        1,
        1,
        1,
        1,
        1,
        1,
        1,
        1,
        1,
        1,
        1,
        1,
        1,
        1,
        1,
        1,
        1,
        1,
        1,
        1,
        1,
        1,
        1,
        1
      ],
      "correct_flags": [
        true,
        true,
        true,
        true,
        false,
        true,
        true,
        false,
        false,
        false,
        false,
        false,
        false,
        true,
        false,
        true,
        true,
        false,
        false,
        false,
        false,
        true,
        false,
        false,
        false,
        true,
        false,
        false,
        false,
        false,
        false,
        false,
        false,
        false,
        false,
        false,
        false,
        false,
        false,
        false,
        false,
        false,
        false,
        false,
        false,
        true,
        false,
        false,
        false,
        false,
        false,
        false,
        true,
        true,
        true,
        false,
        false,
        true,
        false,
        false,
        false,
        false,
        true,
        false,
        false,
        false,
        false,
        false,
        false,
        false,
        false,
        false,
        false,
        false,
        false,
        false,
        false,
        false,
        false,
        false,
        false,
        false,
        true,
        false,
        false,
        false,
        false,
        false,
        true,
        false,
        true,
        false,
        false,
        false,
        false,
        false,
        true,
        false,
        false,
        false
      ],
      "reaction_times": [
        1047.8000001907349,
        868.5,
        1076.2000000476837,
        645.2000000476837,
        986.6000001430511,
        1072.5,
        655.0999999046326,
        719.5999999046326,
        197,
        173.80000019073486,
        164.89999985694885,
        176,
        162,
        176.5,
        160.90000009536743,
        177.5,
        184.40000009536743,
        173.40000009536743,
        175.09999990463257,
        500.80000019073486,
        45.40000009536743,
        31.799999952316284,
        29.300000190734863,
        30.90000009536743,
        31,
        31.799999952316284,
        30.800000190734863,
        30.200000047683716,
        46,
        30.40000009536743,
        31.399999856948853,
        30.700000047683716,
        31.700000047683716,
        29.700000047683716,
        30.299999952316284,
        32,
        30.200000047683716,
        30.5,
        46.700000047683716,
        30.5,
        32.799999952316284,
        29.299999952316284,
        31.700000047683716,
        30,
        30.799999952316284,
        31.299999952316284,
        29.899999856948853,
        46,
        29.899999856948853,
        30.899999856948853,
        31.899999856948853,
        30,
        30,
        31.100000143051147,
        30.799999952316284,
        47.299999952316284,
        31.59999990463257,
        30,
        30.09999990463257,
        30.399999856948853,
        30.799999952316284,
        30.299999952316284,
        31.299999952316284,
        30.299999952316284,
        44.700000047683716,
        31.800000190734863,
        31.299999952316284,
        30.699999809265137,
        30.5,
        30.40000009536743,
        31.09999990463257,
        29.399999856948853,
        45.10000014305115,
        30.100000143051147,
        29.700000047683716,
        29.299999952316284,
        30.40000009536743,
        31.700000047683716,
        44.799999952316284,
        29.600000143051147,
        30.700000047683716,
        30.299999952316284,
        30.200000047683716,
        30.700000047683716,
        31.699999809265137,
        29.399999856948853,
        46.5,
        30.799999952316284,
        31.700000047683716,
        30.40000009536743,
        29.899999856948853,
        30.700000047683716,
        31.600000143051147,
        31.100000143051147,
        44.5,
        29.700000047683716,
        31,
        31.799999952316284,
        31.800000190734863,
        29.700000047683716
      ],
      "trial_index": 52,
      "plugin_version": "1.0.0",
      "time_elapsed": 163626,
      "prolific_pid": null,
      "study_id": null,
      "session_id": null
    }
  ],
  "verbal_fluency_data": [
    {
      "trial_type": "verbal-fluency",
      "participant_id": "P_1751518729067_jobijgfae",
      "practice_raw": "pan, stove, fork",
      "practice_list": [
        "pan",
        "stove",
        "fork"
      ],
      "test_raw": "",
      "test_list": [],
      "test_count": 0,
      "used_time": 0.672,
      "word_timestamps": [],
      "response_intervals": [],
      "response_analysis": {
        "average_interval": 0,
        "max_interval": 0,
        "std_deviation": 0
      },
      "first_third_count": 0,
      "middle_third_count": 0,
      "last_third_count": 0,
      "task": "verbal_fluency",
      "trial_index": 55,
      "plugin_version": "1.0.0",
      "time_elapsed": 176438,
      "prolific_pid": null,
      "study_id": null,
      "session_id": null
    }
  ],
  "aut_data": [
    {
      "trial_type": "aut",
      "participant_id": "P_1751518729067_jobijgfae",
      "responses": [
        {
          "object": "Brick",
          "answer": "",
          "idea_count": 0,
          "rt": 0.9268999998569488,
          "idea_timestamps": [],
          "response_intervals": [],
          "response_analysis": {
            "average_interval": 0,
            "max_interval": 0,
            "std_deviation": 0,
            "first_third_count": 0,
            "middle_third_count": 0,
            "last_third_count": 0
          }
        },
        {
          "object": "Bedsheet",
          "answer": "",
          "idea_count": 0,
          "rt": 0.7082999999523163,
          "idea_timestamps": [],
          "response_intervals": [],
          "response_analysis": {
            "average_interval": 0,
            "max_interval": 0,
            "std_deviation": 0,
            "first_third_count": 0,
            "middle_third_count": 0,
            "last_third_count": 0
          }
        }
      ],
      "task": "aut",
      "trial_index": 53,
      "plugin_version": "1.0.0",
      "time_elapsed": 168093,
      "prolific_pid": null,
      "study_id": null,
      "session_id": null
    }
  ],
  "questionnaire_data": [
    {
      "trial_type": "html-keyboard-response",
      "participant_id": "P_1751518729067_jobijgfae",
      "questionId": 1,
      "questionSource": "CPI",
      "questionType": "likert",
      "is_attention_check": false,
      "correct_answer": null,
      "rt": 179593,
      "response": 2,
      "question_id": 1,
      "question_source": "CPI",
      "question_type": "likert",
      "question_response": {
        "Q1": 3
      },
      "is_correct": null,
      "trial_index": 58,
      "plugin_version": "2.1.0",
      "time_elapsed": 179427,
      "prolific_pid": null,
      "study_id": null,
      "session_id": null
    },
    {
      "trial_type": "html-keyboard-response",
      "participant_id": "P_1751518729067_jobijgfae",
      "questionId": 2,
      "questionSource": "CPI",
      "questionType": "likert",
      "is_attention_check": false,
      "correct_answer": null,
      "rt": 180540.59999990463,
      "response": 2,
      "question_id": 2,
      "question_source": "CPI",
      "question_type": "likert",
      "question_response": {
        "Q2": 3
      },
      "is_correct": null,
      "trial_index": 59,
      "plugin_version": "2.1.0",
      "time_elapsed": 180374,
      "prolific_pid": null,
      "study_id": null,
      "session_id": null
    },
    {
      "trial_type": "html-keyboard-response",
      "participant_id": "P_1751518729067_jobijgfae",
      "questionId": 3,
      "questionSource": "CPI",
      "questionType": "likert",
      "is_attention_check": false,
      "correct_answer": null,
      "rt": 181455.40000009537,
      "response": 2,
      "question_id": 3,
      "question_source": "CPI",
      "question_type": "likert",
      "question_response": {
        "Q3": 3
      },
      "is_correct": null,
      "trial_index": 60,
      "plugin_version": "2.1.0",
      "time_elapsed": 181289,
      "prolific_pid": null,
      "study_id": null,
      "session_id": null
    },
    {
      "trial_type": "html-keyboard-response",
      "participant_id": "P_1751518729067_jobijgfae",
      "questionId": 4,
      "questionSource": "CPI",
      "questionType": "likert",
      "is_attention_check": false,
      "correct_answer": null,
      "rt": 182354.40000009537,
      "response": 2,
      "question_id": 4,
      "question_source": "CPI",
      "question_type": "likert",
      "question_response": {
        "Q4": 3
      },
      "is_correct": null,
      "trial_index": 61,
      "plugin_version": "2.1.0",
      "time_elapsed": 182188,
      "prolific_pid": null,
      "study_id": null,
      "session_id": null
    },
    {
      "trial_type": "html-keyboard-response",
      "participant_id": "P_1751518729067_jobijgfae",
      "questionId": 5,
      "questionSource": "CSE",
      "questionType": "likert",
      "is_attention_check": false,
      "correct_answer": null,
      "rt": 183285.09999990463,
      "response": 2,
      "question_id": 5,
      "question_source": "CSE",
      "question_type": "likert",
      "question_response": {
        "Q5": 3
      },
      "is_correct": null,
      "trial_index": 62,
      "plugin_version": "2.1.0",
      "time_elapsed": 183119,
      "prolific_pid": null,
      "study_id": null,
      "session_id": null
    },
    {
      "trial_type": "html-keyboard-response",
      "participant_id": "P_1751518729067_jobijgfae",
      "questionId": 6,
      "questionSource": "CSE",
      "questionType": "likert",
      "is_attention_check": false,
      "correct_answer": null,
      "rt": 184167.29999995232,
      "response": 2,
      "question_id": 6,
      "question_source": "CSE",
      "question_type": "likert",
      "question_response": {
        "Q6": 3
      },
      "is_correct": null,
      "trial_index": 63,
      "plugin_version": "2.1.0",
      "time_elapsed": 184001,
      "prolific_pid": null,
      "study_id": null,
      "session_id": null
    },
    {
      "trial_type": "html-keyboard-response",
      "participant_id": "P_1751518729067_jobijgfae",
      "questionId": 7,
      "questionSource": "CSE",
      "questionType": "likert",
      "is_attention_check": false,
      "correct_answer": null,
      "rt": 185047.5,
      "response": 2,
      "question_id": 7,
      "question_source": "CSE",
      "question_type": "likert",
      "question_response": {
        "Q7": 3
      },
      "is_correct": null,
      "trial_index": 64,
      "plugin_version": "2.1.0",
      "time_elapsed": 184881,
      "prolific_pid": null,
      "study_id": null,
      "session_id": null
    },
    {
      "trial_type": "html-keyboard-response",
      "participant_id": "P_1751518729067_jobijgfae",
      "questionId": 8,
      "questionSource": "CSE",
      "questionType": "likert",
      "is_attention_check": false,
      "correct_answer": null,
      "rt": 185971,
      "response": 2,
      "question_id": 8,
      "question_source": "CSE",
      "question_type": "likert",
      "question_response": {
        "Q8": 3
      },
      "is_correct": null,
      "trial_index": 65,
      "plugin_version": "2.1.0",
      "time_elapsed": 185805,
      "prolific_pid": null,
      "study_id": null,
      "session_id": null
    },
    {
      "trial_type": "html-keyboard-response",
      "participant_id": "P_1751518729067_jobijgfae",
      "questionId": 9,
      "questionSource": "CMS",
      "questionType": "likert",
      "is_attention_check": false,
      "correct_answer": null,
      "rt": 186903.29999995232,
      "response": 2,
      "question_id": 9,
      "question_source": "CMS",
      "question_type": "likert",
      "question_response": {
        "Q9": 3
      },
      "is_correct": null,
      "trial_index": 66,
      "plugin_version": "2.1.0",
      "time_elapsed": 186737,
      "prolific_pid": null,
      "study_id": null,
      "session_id": null
    },
    {
      "trial_type": "html-keyboard-response",
      "participant_id": "P_1751518729067_jobijgfae",
      "questionId": 10,
      "questionSource": "CMS",
      "questionType": "likert",
      "is_attention_check": false,
      "correct_answer": null,
      "rt": 187842.70000004768,
      "response": 2,
      "question_id": 10,
      "question_source": "CMS",
      "question_type": "likert",
      "question_response": {
        "Q10": 3
      },
      "is_correct": null,
      "trial_index": 67,
      "plugin_version": "2.1.0",
      "time_elapsed": 187677,
      "prolific_pid": null,
      "study_id": null,
      "session_id": null
    },
    {
      "trial_type": "html-keyboard-response",
      "participant_id": "P_1751518729067_jobijgfae",
      "questionId": 11,
      "questionSource": "CMS",
      "questionType": "likert",
      "is_attention_check": false,
      "correct_answer": null,
      "rt": 188774.5,
      "response": 2,
      "question_id": 11,
      "question_source": "CMS",
      "question_type": "likert",
      "question_response": {
        "Q11": 3
      },
      "is_correct": null,
      "trial_index": 68,
      "plugin_version": "2.1.0",
      "time_elapsed": 188608,
      "prolific_pid": null,
      "study_id": null,
      "session_id": null
    },
    {
      "trial_type": "html-keyboard-response",
      "participant_id": "P_1751518729067_jobijgfae",
      "questionId": 12,
      "questionSource": "CMS",
      "questionType": "likert",
      "is_attention_check": false,
      "correct_answer": null,
      "rt": 189764.70000004768,
      "response": 2,
      "question_id": 12,
      "question_source": "CMS",
      "question_type": "likert",
      "question_response": {
        "Q12": 3
      },
      "is_correct": null,
      "trial_index": 69,
      "plugin_version": "2.1.0",
      "time_elapsed": 189598,
      "prolific_pid": null,
      "study_id": null,
      "session_id": null
    },
    {
      "trial_type": "html-keyboard-response",
      "participant_id": "P_1751518729067_jobijgfae",
      "questionId": 13,
      "questionSource": "CMS",
      "questionType": "likert",
      "is_attention_check": false,
      "correct_answer": null,
      "rt": 190730.5,
      "response": 2,
      "question_id": 13,
      "question_source": "CMS",
      "question_type": "likert",
      "question_response": {
        "Q13": 3
      },
      "is_correct": null,
      "trial_index": 70,
      "plugin_version": "2.1.0",
      "time_elapsed": 190564,
      "prolific_pid": null,
      "study_id": null,
      "session_id": null
    },
    {
      "trial_type": "html-keyboard-response",
      "participant_id": "P_1751518729067_jobijgfae",
      "questionId": 14,
      "questionSource": "CMS",
      "questionType": "likert",
      "is_attention_check": false,
      "correct_answer": null,
      "rt": 191705,
      "response": 2,
      "question_id": 14,
      "question_source": "CMS",
      "question_type": "likert",
      "question_response": {
        "Q14": 3
      },
      "is_correct": null,
      "trial_index": 71,
      "plugin_version": "2.1.0",
      "time_elapsed": 191539,
      "prolific_pid": null,
      "study_id": null,
      "session_id": null
    },
    {
      "trial_type": "html-keyboard-response",
      "participant_id": "P_1751518729067_jobijgfae",
      "questionId": 15,
      "questionSource": "CMS",
      "questionType": "likert",
      "is_attention_check": false,
      "correct_answer": null,
      "rt": 193307.59999990463,
      "response": 2,
      "question_id": 15,
      "question_source": "CMS",
      "question_type": "likert",
      "question_response": {
        "Q15": 3
      },
      "is_correct": null,
      "trial_index": 72,
      "plugin_version": "2.1.0",
      "time_elapsed": 193141,
      "prolific_pid": null,
      "study_id": null,
      "session_id": null
    },
    {
      "trial_type": "html-keyboard-response",
      "participant_id": "P_1751518729067_jobijgfae",
      "questionId": 16,
      "questionSource": "CMS",
      "questionType": "likert",
      "is_attention_check": false,
      "correct_answer": null,
      "rt": 194617.09999990463,
      "response": 2,
      "question_id": 16,
      "question_source": "CMS",
      "question_type": "likert",
      "question_response": {
        "Q16": 3
      },
      "is_correct": null,
      "trial_index": 73,
      "plugin_version": "2.1.0",
      "time_elapsed": 194451,
      "prolific_pid": null,
      "study_id": null,
      "session_id": null
    },
    {
      "trial_type": "html-keyboard-response",
      "participant_id": "P_1751518729067_jobijgfae",
      "questionId": 17,
      "questionSource": "CMS",
      "questionType": "likert",
      "is_attention_check": false,
      "correct_answer": null,
      "rt": 195809.59999990463,
      "response": 2,
      "question_id": 17,
      "question_source": "CMS",
      "question_type": "likert",
      "question_response": {
        "Q17": 3
      },
      "is_correct": null,
      "trial_index": 74,
      "plugin_version": "2.1.0",
      "time_elapsed": 195643,
      "prolific_pid": null,
      "study_id": null,
      "session_id": null
    },
    {
      "trial_type": "html-keyboard-response",
      "participant_id": "P_1751518729067_jobijgfae",
      "questionId": "attention_check_1",
      "questionSource": "ATTENTION_CHECK",
      "questionType": "likert",
      "is_attention_check": true,
      "correct_answer": 5,
      "rt": 200703.70000004768,
      "response": 4,
      "question_id": "attention_check_1",
      "question_source": "ATTENTION_CHECK",
      "question_type": "likert",
      "question_response": {
        "Qattention_check_1": 5
      },
      "is_correct": true,
      "trial_index": 75,
      "plugin_version": "2.1.0",
      "time_elapsed": 200538,
      "prolific_pid": null,
      "study_id": null,
      "session_id": null
    },
    {
      "trial_type": "html-keyboard-response",
      "participant_id": "P_1751518729067_jobijgfae",
      "questionId": 18,
      "questionSource": "CMS",
      "questionType": "likert",
      "is_attention_check": false,
      "correct_answer": null,
      "rt": 201899.70000004768,
      "response": 2,
      "question_id": 18,
      "question_source": "CMS",
      "question_type": "likert",
      "question_response": {
        "Q18": 3
      },
      "is_correct": null,
      "trial_index": 76,
      "plugin_version": "2.1.0",
      "time_elapsed": 201734,
      "prolific_pid": null,
      "study_id": null,
      "session_id": null
    },
    {
      "trial_type": "html-keyboard-response",
      "participant_id": "P_1751518729067_jobijgfae",
      "questionId": 19,
      "questionSource": "AARC",
      "questionType": "likert",
      "is_attention_check": false,
      "correct_answer": null,
      "rt": 203923,
      "response": 2,
      "question_id": 19,
      "question_source": "AARC",
      "question_type": "likert",
      "question_response": {
        "Q19": 3
      },
      "is_correct": null,
      "trial_index": 78,
      "plugin_version": "2.1.0",
      "time_elapsed": 203757,
      "prolific_pid": null,
      "study_id": null,
      "session_id": null
    },
    {
      "trial_type": "html-keyboard-response",
      "participant_id": "P_1751518729067_jobijgfae",
      "questionId": 20,
      "questionSource": "AARC",
      "questionType": "likert",
      "is_attention_check": false,
      "correct_answer": null,
      "rt": 204821.29999995232,
      "response": 2,
      "question_id": 20,
      "question_source": "AARC",
      "question_type": "likert",
      "question_response": {
        "Q20": 3
      },
      "is_correct": null,
      "trial_index": 79,
      "plugin_version": "2.1.0",
      "time_elapsed": 204655,
      "prolific_pid": null,
      "study_id": null,
      "session_id": null
    },
    {
      "trial_type": "html-keyboard-response",
      "participant_id": "P_1751518729067_jobijgfae",
      "questionId": 21,
      "questionSource": "AARC",
      "questionType": "likert",
      "is_attention_check": false,
      "correct_answer": null,
      "rt": 205702.5,
      "response": 2,
      "question_id": 21,
      "question_source": "AARC",
      "question_type": "likert",
      "question_response": {
        "Q21": 3
      },
      "is_correct": null,
      "trial_index": 80,
      "plugin_version": "2.1.0",
      "time_elapsed": 205536,
      "prolific_pid": null,
      "study_id": null,
      "session_id": null
    },
    {
      "trial_type": "html-keyboard-response",
      "participant_id": "P_1751518729067_jobijgfae",
      "questionId": 22,
      "questionSource": "AARC",
      "questionType": "likert",
      "is_attention_check": false,
      "correct_answer": null,
      "rt": 206651,
      "response": 2,
      "question_id": 22,
      "question_source": "AARC",
      "question_type": "likert",
      "question_response": {
        "Q22": 3
      },
      "is_correct": null,
      "trial_index": 81,
      "plugin_version": "2.1.0",
      "time_elapsed": 206485,
      "prolific_pid": null,
      "study_id": null,
      "session_id": null
    },
    {
      "trial_type": "html-keyboard-response",
      "participant_id": "P_1751518729067_jobijgfae",
      "questionId": 23,
      "questionSource": "AARC",
      "questionType": "likert",
      "is_attention_check": false,
      "correct_answer": null,
      "rt": 207599.59999990463,
      "response": 2,
      "question_id": 23,
      "question_source": "AARC",
      "question_type": "likert",
      "question_response": {
        "Q23": 3
      },
      "is_correct": null,
      "trial_index": 82,
      "plugin_version": "2.1.0",
      "time_elapsed": 207433,
      "prolific_pid": null,
      "study_id": null,
      "session_id": null
    },
    {
      "trial_type": "html-keyboard-response",
      "participant_id": "P_1751518729067_jobijgfae",
      "questionId": 24,
      "questionSource": "AARC",
      "questionType": "likert",
      "is_attention_check": false,
      "correct_answer": null,
      "rt": 208498.09999990463,
      "response": 2,
      "question_id": 24,
      "question_source": "AARC",
      "question_type": "likert",
      "question_response": {
        "Q24": 3
      },
      "is_correct": null,
      "trial_index": 83,
      "plugin_version": "2.1.0",
      "time_elapsed": 208332,
      "prolific_pid": null,
      "study_id": null,
      "session_id": null
    },
    {
      "trial_type": "html-keyboard-response",
      "participant_id": "P_1751518729067_jobijgfae",
      "questionId": 25,
      "questionSource": "AARC",
      "questionType": "likert",
      "is_attention_check": false,
      "correct_answer": null,
      "rt": 209404.40000009537,
      "response": 2,
      "question_id": 25,
      "question_source": "AARC",
      "question_type": "likert",
      "question_response": {
        "Q25": 3
      },
      "is_correct": null,
      "trial_index": 84,
      "plugin_version": "2.1.0",
      "time_elapsed": 209238,
      "prolific_pid": null,
      "study_id": null,
      "session_id": null
    },
    {
      "trial_type": "html-keyboard-response",
      "participant_id": "P_1751518729067_jobijgfae",
      "questionId": 26,
      "questionSource": "AARC",
      "questionType": "likert",
      "is_attention_check": false,
      "correct_answer": null,
      "rt": 210361.29999995232,
      "response": 2,
      "question_id": 26,
      "question_source": "AARC",
      "question_type": "likert",
      "question_response": {
        "Q26": 3
      },
      "is_correct": null,
      "trial_index": 85,
      "plugin_version": "2.1.0",
      "time_elapsed": 210195,
      "prolific_pid": null,
      "study_id": null,
      "session_id": null
    },
    {
      "trial_type": "html-keyboard-response",
      "participant_id": "P_1751518729067_jobijgfae",
      "questionId": 27,
      "questionSource": "AARC",
      "questionType": "likert",
      "is_attention_check": false,
      "correct_answer": null,
      "rt": 212052.59999990463,
      "response": 2,
      "question_id": 27,
      "question_source": "AARC",
      "question_type": "likert",
      "question_response": {
        "Q27": 3
      },
      "is_correct": null,
      "trial_index": 86,
      "plugin_version": "2.1.0",
      "time_elapsed": 211887,
      "prolific_pid": null,
      "study_id": null,
      "session_id": null
    },
    {
      "trial_type": "html-keyboard-response",
      "participant_id": "P_1751518729067_jobijgfae",
      "questionId": "attention_check_2",
      "questionSource": "ATTENTION_CHECK",
      "questionType": "likert",
      "is_attention_check": true,
      "correct_answer": 2,
      "rt": 217596.5,
      "response": 1,
      "question_id": "attention_check_2",
      "question_source": "ATTENTION_CHECK",
      "question_type": "likert",
      "question_response": {
        "Qattention_check_2": 2
      },
      "is_correct": true,
      "trial_index": 87,
      "plugin_version": "2.1.0",
      "time_elapsed": 217430,
      "prolific_pid": null,
      "study_id": null,
      "session_id": null
    },
    {
      "trial_type": "html-keyboard-response",
      "participant_id": "P_1751518729067_jobijgfae",
      "questionId": 28,
      "questionSource": "AARC",
      "questionType": "likert",
      "is_attention_check": false,
      "correct_answer": null,
      "rt": 219232.90000009537,
      "response": 2,
      "question_id": 28,
      "question_source": "AARC",
      "question_type": "likert",
      "question_response": {
        "Q28": 3
      },
      "is_correct": null,
      "trial_index": 88,
      "plugin_version": "2.1.0",
      "time_elapsed": 219067,
      "prolific_pid": null,
      "study_id": null,
      "session_id": null
    },
    {
      "trial_type": "html-keyboard-response",
      "participant_id": "P_1751518729067_jobijgfae",
      "questionId": 34,
      "questionSource": "DEM",
      "questionType": "option",
      "is_attention_check": false,
      "correct_answer": null,
      "rt": 223748.20000004768,
      "response": 2,
      "question_id": 34,
      "question_source": "DEM",
      "question_type": "option",
      "question_response": {
        "Q34": "I don't want to say"
      },
      "is_correct": null,
      "trial_index": 91,
      "plugin_version": "2.1.0",
      "time_elapsed": 223582,
      "prolific_pid": null,
      "study_id": null,
      "session_id": null
    },
    {
      "trial_type": "html-keyboard-response",
      "participant_id": "P_1751518729067_jobijgfae",
      "questionId": 30,
      "questionSource": "DEM",
      "questionType": "option",
      "is_attention_check": false,
      "correct_answer": null,
      "rt": 224900,
      "response": 3,
      "question_id": 30,
      "question_source": "DEM",
      "question_type": "option",
      "question_response": {
        "Q30": "Bachelor's degree or above"
      },
      "is_correct": null,
      "trial_index": 92,
      "plugin_version": "2.1.0",
      "time_elapsed": 224734,
      "prolific_pid": null,
      "study_id": null,
      "session_id": null
    },
    {
      "trial_type": "html-keyboard-response",
      "participant_id": "P_1751518729067_jobijgfae",
      "questionId": 31,
      "questionSource": "DEM",
      "questionType": "option",
      "is_attention_check": false,
      "correct_answer": null,
      "rt": 226124.09999990463,
      "response": 3,
      "question_id": 31,
      "question_source": "DEM",
      "question_type": "option",
      "question_response": {
        "Q31": "Very good"
      },
      "is_correct": null,
      "trial_index": 93,
      "plugin_version": "2.1.0",
      "time_elapsed": 225958,
      "prolific_pid": null,
      "study_id": null,
      "session_id": null
    },
    {
      "trial_type": "html-keyboard-response",
      "participant_id": "P_1751518729067_jobijgfae",
      "questionId": 33,
      "questionSource": "DEM",
      "questionType": "likert",
      "is_attention_check": false,
      "correct_answer": null,
      "rt": 229551.70000004768,
      "response": 9,
      "question_id": 33,
      "question_source": "DEM",
      "question_type": "likert",
      "question_response": {
        "Q33": 10
      },
      "is_correct": null,
      "trial_index": 95,
      "plugin_version": "2.1.0",
      "time_elapsed": 229386,
      "prolific_pid": null,
      "study_id": null,
      "session_id": null
    }
  ],
  "completed_levels": {
    "tutorial": [
      0,
      1
    ],
    "journey": [
      0,
      1,
      2,
      3,
      4,
      5
    ]
  },
  "unlocked_levels": {
    "tutorial": 2,
    "journey": 6
  },
  "player_feedback_data": []
}