{
  "participant_id": "P_1751641494221_62q43oywu",
  "session_id": "session_1751642145009",
  "experiment_version": "1.0.0",
  "start_time": "1970-01-01T00:00:00.733Z",
  "end_time": "2025-07-04T15:15:45.009Z",
  "total_duration_sec": 650.177,
  "completion_status": "completed",
  "device_info": {
    "browser": "Mozilla/5.0 (Windows NT 10.0; Win64; x64) AppleWebKit/537.36 (KHTML, like Gecko) Chrome/138.0.0.0 Safari/537.36 Edg/138.0.0.0",
    "os": "Win32",
    "screen_resolution": [
      1440,
      900
    ],
    "window_size": [
      1440,
      900
    ]
  },
  "experimental_condition": "low-prior",
  "tasks_completed": [
    "baba_game",
    "digit_span_forward",
    "digit_span_backward",
    "dsst",
    "verbal_fluency",
    "aut",
    "questionnaire"
  ],
  "baba_game_data": [
    {
      "trial_type": "baba-game",
      "participant_id": "P_1751641494221_62q43oywu",
      "condition_type": "low-prior",
      "trial_index": 8,
      "plugin_version": "1.0.0",
      "time_elapsed": 28347,
      "prolific_pid": null,
      "study_id": null,
      "session_id": null
    },
    {
      "trial_type": "baba-game",
      "participant_id": "P_1751641494221_62q43oywu",
      "condition_type": "low-prior",
      "trial_index": 14,
      "plugin_version": "1.0.0",
      "time_elapsed": 41723,
      "prolific_pid": null,
      "study_id": null,
      "session_id": null
    },
    {
      "trial_type": "baba-game",
      "participant_id": "P_1751641494221_62q43oywu",
      "condition_type": "low-prior",
      "trial_index": 21,
      "plugin_version": "1.0.0",
      "time_elapsed": 55735,
      "prolific_pid": null,
      "study_id": null,
      "session_id": null
    },
    {
      "trial_type": "baba-game",
      "participant_id": "P_1751641494221_62q43oywu",
      "condition_type": "low-prior",
      "trial_index": 27,
      "plugin_version": "1.0.0",
      "time_elapsed": 69699,
      "prolific_pid": null,
      "study_id": null,
      "session_id": null
    },
    {
      "trial_type": "baba-game",
      "participant_id": "P_1751641494221_62q43oywu",
      "condition_type": "low-prior",
      "trial_index": 33,
      "plugin_version": "1.0.0",
      "time_elapsed": 81069,
      "prolific_pid": null,
      "study_id": null,
      "session_id": null
    },
    {
      "trial_type": "baba-game",
      "participant_id": "P_1751641494221_62q43oywu",
      "condition_type": "low-prior",
      "trial_index": 39,
      "plugin_version": "1.0.0",
      "time_elapsed": 93587,
      "prolific_pid": null,
      "study_id": null,
      "session_id": null
    },
    {
      "trial_type": "baba-game",
      "participant_id": "P_1751641494221_62q43oywu",
      "condition_type": "low-prior",
      "trial_index": 45,
      "plugin_version": "1.0.0",
      "time_elapsed": 106008,
      "prolific_pid": null,
      "study_id": null,
      "session_id": null
    },
    {
      "trial_type": "baba-game",
      "participant_id": "P_1751641494221_62q43oywu",
      "condition_type": "low-prior",
      "trial_index": 51,
      "plugin_version": "1.0.0",
      "time_elapsed": 119495,
      "prolific_pid": null,
      "study_id": null,
      "session_id": null
    }
  ],
  "digit_span_data": {
    "forward": [
      {
        "trial_type": "digit-span",
        "participant_id": "P_1751641494221_62q43oywu",
        "task_version": "1.0.0",
        "mode": "forward",
        "max_span": 0,
        "total_correct": 0,
        "total_trials": 2,
        "consecutive_errors": 2,
        "trials": [
          {
            "trial_number": 1,
            "span_length": 3,
            "sequence": [
              9,
              4,
              8
            ],
            "user_response": [
              1,
              1,
              1
            ],
            "correct": false,
            "reaction_time": 0.841,
            "consecutive_errors_before": 0,
            "timestamp": 1751641634998
          },
          {
            "trial_number": 2,
            "span_length": 3,
            "sequence": [
              2,
              9,
              3
            ],
            "user_response": [
              1,
              1,
              1
            ],
            "correct": false,
            "reaction_time": 0.873,
            "consecutive_errors_before": 1,
            "timestamp": 1751641640443
          }
        ],
        "response_times": [
          0.841,
          0.873
        ],
        "consecutive_errors_count": 2,
        "task_completion_time": 15.253,
        "audio_used": false,
        "digit_duration": 0.5,
        "trial_index": 59,
        "plugin_version": "1.0.0",
        "time_elapsed": 145865,
        "prolific_pid": null,
        "study_id": null,
        "session_id": null
      }
    ],
    "backward": [
      {
        "trial_type": "digit-span",
        "participant_id": "P_1751641494221_62q43oywu",
        "task_version": "1.0.0",
        "mode": "backward",
        "max_span": 0,
        "total_correct": 0,
        "total_trials": 2,
        "consecutive_errors": 2,
        "trials": [
          {
            "trial_number": 1,
            "span_length": 2,
            "sequence": [
              1,
              8
            ],
            "user_response": [
              2,
              2
            ],
            "correct": false,
            "reaction_time": 0.617,
            "consecutive_errors_before": 0,
            "timestamp": 1751641646927
          },
          {
            "trial_number": 2,
            "span_length": 2,
            "sequence": [
              1,
              3
            ],
            "user_response": [
              1,
              1
            ],
            "correct": false,
            "reaction_time": 0.638,
            "consecutive_errors_before": 1,
            "timestamp": 1751641650604
          }
        ],
        "response_times": [
          0.617,
          0.638
        ],
        "consecutive_errors_count": 2,
        "task_completion_time": 9.053,
        "audio_used": false,
        "digit_duration": 0.5,
        "trial_index": 61,
        "plugin_version": "1.0.0",
        "time_elapsed": 156026,
        "prolific_pid": null,
        "study_id": null,
        "session_id": null
      }
    ]
  },
  "dsst_data": [
    {
      "trial_type": "dsst",
      "participant_id": "P_1751641494221_62q43oywu",
      "total_attempted": 0,
      "correct": 0,
      "wrong": 0,
      "used_time": 90,
      "answers": [
        null,
        null,
        null,
        null,
        null,
        null,
        null,
        null,
        null,
        null,
        null,
        null,
        null,
        null,
        null,
        null,
        null,
        null,
        null,
        null,
        null,
        null,
        null,
        null,
        null,
        null,
        null,
        null,
        null,
        null,
        null,
        null,
        null,
        null,
        null,
        null,
        null,
        null,
        null,
        null,
        null,
        null,
        null,
        null,
        null,
        null,
        null,
        null,
        null,
        null,
        null,
        null,
        null,
        null,
        null,
        null,
        null,
        null,
        null,
        null,
        null,
        null,
        null,
        null,
        null,
        null,
        null,
        null,
        null,
        null,
        null,
        null,
        null,
        null,
        null,
        null,
        null,
        null,
        null,
        null,
        null,
        null,
        null,
        null,
        null,
        null,
        null,
        null,
        null,
        null,
        null,
        null,
        null,
        null,
        null,
        null,
        null,
        null,
        null,
        null
      ],
      "correct_flags": [
        false,
        false,
        false,
        false,
        false,
        false,
        false,
        false,
        false,
        false,
        false,
        false,
        false,
        false,
        false,
        false,
        false,
        false,
        false,
        false,
        false,
        false,
        false,
        false,
        false,
        false,
        false,
        false,
        false,
        false,
        false,
        false,
        false,
        false,
        false,
        false,
        false,
        false,
        false,
        false,
        false,
        false,
        false,
        false,
        false,
        false,
        false,
        false,
        false,
        false,
        false,
        false,
        false,
        false,
        false,
        false,
        false,
        false,
        false,
        false,
        false,
        false,
        false,
        false,
        false,
        false,
        false,
        false,
        false,
        false,
        false,
        false,
        false,
        false,
        false,
        false,
        false,
        false,
        false,
        false,
        false,
        false,
        false,
        false,
        false,
        false,
        false,
        false,
        false,
        false,
        false,
        false,
        false,
        false,
        false,
        false,
        false,
        false,
        false,
        false
      ],
      "reaction_times": [
        null,
        null,
        null,
        null,
        null,
        null,
        null,
        null,
        null,
        null,
        null,
        null,
        null,
        null,
        null,
        null,
        null,
        null,
        null,
        null,
        null,
        null,
        null,
        null,
        null,
        null,
        null,
        null,
        null,
        null,
        null,
        null,
        null,
        null,
        null,
        null,
        null,
        null,
        null,
        null,
        null,
        null,
        null,
        null,
        null,
        null,
        null,
        null,
        null,
        null,
        null,
        null,
        null,
        null,
        null,
        null,
        null,
        null,
        null,
        null,
        null,
        null,
        null,
        null,
        null,
        null,
        null,
        null,
        null,
        null,
        null,
        null,
        null,
        null,
        null,
        null,
        null,
        null,
        null,
        null,
        null,
        null,
        null,
        null,
        null,
        null,
        null,
        null,
        null,
        null,
        null,
        null,
        null,
        null,
        null,
        null,
        null,
        null,
        null,
        null
      ],
      "trial_index": 64,
      "plugin_version": "1.0.0",
      "time_elapsed": 256510,
      "prolific_pid": null,
      "study_id": null,
      "session_id": null
    }
  ],
  "verbal_fluency_data": [
    {
      "trial_type": "verbal-fluency",
      "participant_id": "P_1751641494221_62q43oywu",
      "practice_raw": "pan, fork, stove",
      "practice_list": [
        "pan",
        "fork",
        "stove"
      ],
      "test_raw": "",
      "test_list": [],
      "test_count": 0,
      "used_time": 60,
      "word_timestamps": [],
      "response_intervals": [],
      "response_analysis": {
        "average_interval": 0,
        "max_interval": 0,
        "std_deviation": 0
      },
      "first_third_count": 0,
      "middle_third_count": 0,
      "last_third_count": 0,
      "task": "verbal_fluency",
      "trial_index": 68,
      "plugin_version": "1.0.0",
      "time_elapsed": 590758,
      "prolific_pid": null,
      "study_id": null,
      "session_id": null
    }
  ],
  "aut_data": [
    {
      "trial_type": "aut",
      "participant_id": "P_1751641494221_62q43oywu",
      "practice_raw": "drink, eat",
      "practice_list": [
        "drink",
        "eat"
      ],
      "responses": [
        {
          "object": "Brick",
          "answer": "",
          "idea_count": 0,
          "rt": 120.00169999980926,
          "idea_timestamps": [],
          "response_intervals": [],
          "response_analysis": {
            "average_interval": 0,
            "max_interval": 0,
            "std_deviation": 0,
            "first_third_count": 0,
            "middle_third_count": 0,
            "last_third_count": 0
          }
        },
        {
          "object": "Bedsheet",
          "answer": "",
          "idea_count": 0,
          "rt": 120.00040000009537,
          "idea_timestamps": [],
          "response_intervals": [],
          "response_analysis": {
            "average_interval": 0,
            "max_interval": 0,
            "std_deviation": 0,
            "first_third_count": 0,
            "middle_third_count": 0,
            "last_third_count": 0
          }
        }
      ],
      "task": "aut",
      "trial_index": 66,
      "plugin_version": "1.0.0",
      "time_elapsed": 504310,
      "prolific_pid": null,
      "study_id": null,
      "session_id": null
    }
  ],
  "questionnaire_data": [
    {
      "trial_type": "html-keyboard-response",
      "participant_id": "P_1751641494221_62q43oywu",
      "questionId": 1,
      "questionSource": "CPI",
      "questionType": "likert",
      "is_attention_check": false,
      "correct_answer": null,
      "rt": 596744.2999999523,
      "response": 2,
      "question_id": 1,
      "question_source": "CPI",
      "question_type": "likert",
      "question_response": {
        "Q1": 3
      },
      "is_correct": null,
      "trial_index": 71,
      "plugin_version": "2.1.0",
      "time_elapsed": 593859,
      "prolific_pid": null,
      "study_id": null,
      "session_id": null
    },
    {
      "trial_type": "html-keyboard-response",
      "participant_id": "P_1751641494221_62q43oywu",
      "questionId": 2,
      "questionSource": "CPI",
      "questionType": "likert",
      "is_attention_check": false,
      "correct_answer": null,
      "rt": 597630.6999998093,
      "response": 2,
      "question_id": 2,
      "question_source": "CPI",
      "question_type": "likert",
      "question_response": {
        "Q2": 3
      },
      "is_correct": null,
      "trial_index": 72,
      "plugin_version": "2.1.0",
      "time_elapsed": 594746,
      "prolific_pid": null,
      "study_id": null,
      "session_id": null
    },
    {
      "trial_type": "html-keyboard-response",
      "participant_id": "P_1751641494221_62q43oywu",
      "questionId": 3,
      "questionSource": "CPI",
      "questionType": "likert",
      "is_attention_check": false,
      "correct_answer": null,
      "rt": 598662.1999998093,
      "response": 2,
      "question_id": 3,
      "question_source": "CPI",
      "question_type": "likert",
      "question_response": {
        "Q3": 3
      },
      "is_correct": null,
      "trial_index": 73,
      "plugin_version": "2.1.0",
      "time_elapsed": 595777,
      "prolific_pid": null,
      "study_id": null,
      "session_id": null
    },
    {
      "trial_type": "html-keyboard-response",
      "participant_id": "P_1751641494221_62q43oywu",
      "questionId": 4,
      "questionSource": "CPI",
      "questionType": "likert",
      "is_attention_check": false,
      "correct_answer": null,
      "rt": 599619.5,
      "response": 2,
      "question_id": 4,
      "question_source": "CPI",
      "question_type": "likert",
      "question_response": {
        "Q4": 3
      },
      "is_correct": null,
      "trial_index": 74,
      "plugin_version": "2.1.0",
      "time_elapsed": 596735,
      "prolific_pid": null,
      "study_id": null,
      "session_id": null
    },
    {
      "trial_type": "html-keyboard-response",
      "participant_id": "P_1751641494221_62q43oywu",
      "questionId": 5,
      "questionSource": "CSE",
      "questionType": "likert",
      "is_attention_check": false,
      "correct_answer": null,
      "rt": 600565.1999998093,
      "response": 2,
      "question_id": 5,
      "question_source": "CSE",
      "question_type": "likert",
      "question_response": {
        "Q5": 3
      },
      "is_correct": null,
      "trial_index": 75,
      "plugin_version": "2.1.0",
      "time_elapsed": 597680,
      "prolific_pid": null,
      "study_id": null,
      "session_id": null
    },
    {
      "trial_type": "html-keyboard-response",
      "participant_id": "P_1751641494221_62q43oywu",
      "questionId": 6,
      "questionSource": "CSE",
      "questionType": "likert",
      "is_attention_check": false,
      "correct_answer": null,
      "rt": 601562.2999999523,
      "response": 2,
      "question_id": 6,
      "question_source": "CSE",
      "question_type": "likert",
      "question_response": {
        "Q6": 3
      },
      "is_correct": null,
      "trial_index": 76,
      "plugin_version": "2.1.0",
      "time_elapsed": 598678,
      "prolific_pid": null,
      "study_id": null,
      "session_id": null
    },
    {
      "trial_type": "html-keyboard-response",
      "participant_id": "P_1751641494221_62q43oywu",
      "questionId": 7,
      "questionSource": "CSE",
      "questionType": "likert",
      "is_attention_check": false,
      "correct_answer": null,
      "rt": 602778.399999857,
      "response": 2,
      "question_id": 7,
      "question_source": "CSE",
      "question_type": "likert",
      "question_response": {
        "Q7": 3
      },
      "is_correct": null,
      "trial_index": 77,
      "plugin_version": "2.1.0",
      "time_elapsed": 599894,
      "prolific_pid": null,
      "study_id": null,
      "session_id": null
    },
    {
      "trial_type": "html-keyboard-response",
      "participant_id": "P_1751641494221_62q43oywu",
      "questionId": 8,
      "questionSource": "CSE",
      "questionType": "likert",
      "is_attention_check": false,
      "correct_answer": null,
      "rt": 603868,
      "response": 2,
      "question_id": 8,
      "question_source": "CSE",
      "question_type": "likert",
      "question_response": {
        "Q8": 3
      },
      "is_correct": null,
      "trial_index": 78,
      "plugin_version": "2.1.0",
      "time_elapsed": 600983,
      "prolific_pid": null,
      "study_id": null,
      "session_id": null
    },
    {
      "trial_type": "html-keyboard-response",
      "participant_id": "P_1751641494221_62q43oywu",
      "questionId": 9,
      "questionSource": "CMS",
      "questionType": "likert",
      "is_attention_check": false,
      "correct_answer": null,
      "rt": 605151.399999857,
      "response": 2,
      "question_id": 9,
      "question_source": "CMS",
      "question_type": "likert",
      "question_response": {
        "Q9": 3
      },
      "is_correct": null,
      "trial_index": 79,
      "plugin_version": "2.1.0",
      "time_elapsed": 602266,
      "prolific_pid": null,
      "study_id": null,
      "session_id": null
    },
    {
      "trial_type": "html-keyboard-response",
      "participant_id": "P_1751641494221_62q43oywu",
      "questionId": 10,
      "questionSource": "CMS",
      "questionType": "likert",
      "is_attention_check": false,
      "correct_answer": null,
      "rt": 606206.5999999046,
      "response": 2,
      "question_id": 10,
      "question_source": "CMS",
      "question_type": "likert",
      "question_response": {
        "Q10": 3
      },
      "is_correct": null,
      "trial_index": 80,
      "plugin_version": "2.1.0",
      "time_elapsed": 603321,
      "prolific_pid": null,
      "study_id": null,
      "session_id": null
    },
    {
      "trial_type": "html-keyboard-response",
      "participant_id": "P_1751641494221_62q43oywu",
      "questionId": 11,
      "questionSource": "CMS",
      "questionType": "likert",
      "is_attention_check": false,
      "correct_answer": null,
      "rt": 607691.5999999046,
      "response": 2,
      "question_id": 11,
      "question_source": "CMS",
      "question_type": "likert",
      "question_response": {
        "Q11": 3
      },
      "is_correct": null,
      "trial_index": 81,
      "plugin_version": "2.1.0",
      "time_elapsed": 604806,
      "prolific_pid": null,
      "study_id": null,
      "session_id": null
    },
    {
      "trial_type": "html-keyboard-response",
      "participant_id": "P_1751641494221_62q43oywu",
      "questionId": 12,
      "questionSource": "CMS",
      "questionType": "likert",
      "is_attention_check": false,
      "correct_answer": null,
      "rt": 608671,
      "response": 2,
      "question_id": 12,
      "question_source": "CMS",
      "question_type": "likert",
      "question_response": {
        "Q12": 3
      },
      "is_correct": null,
      "trial_index": 82,
      "plugin_version": "2.1.0",
      "time_elapsed": 605786,
      "prolific_pid": null,
      "study_id": null,
      "session_id": null
    },
    {
      "trial_type": "html-keyboard-response",
      "participant_id": "P_1751641494221_62q43oywu",
      "questionId": 13,
      "questionSource": "CMS",
      "questionType": "likert",
      "is_attention_check": false,
      "correct_answer": null,
      "rt": 609627.5999999046,
      "response": 2,
      "question_id": 13,
      "question_source": "CMS",
      "question_type": "likert",
      "question_response": {
        "Q13": 3
      },
      "is_correct": null,
      "trial_index": 83,
      "plugin_version": "2.1.0",
      "time_elapsed": 606743,
      "prolific_pid": null,
      "study_id": null,
      "session_id": null
    },
    {
      "trial_type": "html-keyboard-response",
      "participant_id": "P_1751641494221_62q43oywu",
      "questionId": 14,
      "questionSource": "CMS",
      "questionType": "likert",
      "is_attention_check": false,
      "correct_answer": null,
      "rt": 611278.899999857,
      "response": 2,
      "question_id": 14,
      "question_source": "CMS",
      "question_type": "likert",
      "question_response": {
        "Q14": 3
      },
      "is_correct": null,
      "trial_index": 84,
      "plugin_version": "2.1.0",
      "time_elapsed": 608394,
      "prolific_pid": null,
      "study_id": null,
      "session_id": null
    },
    {
      "trial_type": "html-keyboard-response",
      "participant_id": "P_1751641494221_62q43oywu",
      "questionId": 15,
      "questionSource": "CMS",
      "questionType": "likert",
      "is_attention_check": false,
      "correct_answer": null,
      "rt": 612335.2999999523,
      "response": 2,
      "question_id": 15,
      "question_source": "CMS",
      "question_type": "likert",
      "question_response": {
        "Q15": 3
      },
      "is_correct": null,
      "trial_index": 85,
      "plugin_version": "2.1.0",
      "time_elapsed": 609450,
      "prolific_pid": null,
      "study_id": null,
      "session_id": null
    },
    {
      "trial_type": "html-keyboard-response",
      "participant_id": "P_1751641494221_62q43oywu",
      "questionId": 16,
      "questionSource": "CMS",
      "questionType": "likert",
      "is_attention_check": false,
      "correct_answer": null,
      "rt": 613266.5999999046,
      "response": 2,
      "question_id": 16,
      "question_source": "CMS",
      "question_type": "likert",
      "question_response": {
        "Q16": 3
      },
      "is_correct": null,
      "trial_index": 86,
      "plugin_version": "2.1.0",
      "time_elapsed": 610382,
      "prolific_pid": null,
      "study_id": null,
      "session_id": null
    },
    {
      "trial_type": "html-keyboard-response",
      "participant_id": "P_1751641494221_62q43oywu",
      "questionId": 17,
      "questionSource": "CMS",
      "questionType": "likert",
      "is_attention_check": false,
      "correct_answer": null,
      "rt": 614524.5999999046,
      "response": 2,
      "question_id": 17,
      "question_source": "CMS",
      "question_type": "likert",
      "question_response": {
        "Q17": 3
      },
      "is_correct": null,
      "trial_index": 87,
      "plugin_version": "2.1.0",
      "time_elapsed": 611640,
      "prolific_pid": null,
      "study_id": null,
      "session_id": null
    },
    {
      "trial_type": "html-keyboard-response",
      "participant_id": "P_1751641494221_62q43oywu",
      "questionId": "attention_check_1",
      "questionSource": "ATTENTION_CHECK",
      "questionType": "likert",
      "is_attention_check": true,
      "correct_answer": 5,
      "rt": 616420.5999999046,
      "response": 4,
      "question_id": "attention_check_1",
      "question_source": "ATTENTION_CHECK",
      "question_type": "likert",
      "question_response": {
        "Qattention_check_1": 5
      },
      "is_correct": true,
      "trial_index": 88,
      "plugin_version": "2.1.0",
      "time_elapsed": 613535,
      "prolific_pid": null,
      "study_id": null,
      "session_id": null
    },
    {
      "trial_type": "html-keyboard-response",
      "participant_id": "P_1751641494221_62q43oywu",
      "questionId": 18,
      "questionSource": "CMS",
      "questionType": "likert",
      "is_attention_check": false,
      "correct_answer": null,
      "rt": 617444.399999857,
      "response": 2,
      "question_id": 18,
      "question_source": "CMS",
      "question_type": "likert",
      "question_response": {
        "Q18": 3
      },
      "is_correct": null,
      "trial_index": 89,
      "plugin_version": "2.1.0",
      "time_elapsed": 614559,
      "prolific_pid": null,
      "study_id": null,
      "session_id": null
    },
    {
      "trial_type": "html-keyboard-response",
      "participant_id": "P_1751641494221_62q43oywu",
      "questionId": 19,
      "questionSource": "AARC",
      "questionType": "likert",
      "is_attention_check": false,
      "correct_answer": null,
      "rt": 619593.0999999046,
      "response": 2,
      "question_id": 19,
      "question_source": "AARC",
      "question_type": "likert",
      "question_response": {
        "Q19": 3
      },
      "is_correct": null,
      "trial_index": 91,
      "plugin_version": "2.1.0",
      "time_elapsed": 616708,
      "prolific_pid": null,
      "study_id": null,
      "session_id": null
    },
    {
      "trial_type": "html-keyboard-response",
      "participant_id": "P_1751641494221_62q43oywu",
      "questionId": 20,
      "questionSource": "AARC",
      "questionType": "likert",
      "is_attention_check": false,
      "correct_answer": null,
      "rt": 621961.0999999046,
      "response": 2,
      "question_id": 20,
      "question_source": "AARC",
      "question_type": "likert",
      "question_response": {
        "Q20": 3
      },
      "is_correct": null,
      "trial_index": 92,
      "plugin_version": "2.1.0",
      "time_elapsed": 619076,
      "prolific_pid": null,
      "study_id": null,
      "session_id": null
    },
    {
      "trial_type": "html-keyboard-response",
      "participant_id": "P_1751641494221_62q43oywu",
      "questionId": 21,
      "questionSource": "AARC",
      "questionType": "likert",
      "is_attention_check": false,
      "correct_answer": null,
      "rt": 623285.899999857,
      "response": 2,
      "question_id": 21,
      "question_source": "AARC",
      "question_type": "likert",
      "question_response": {
        "Q21": 3
      },
      "is_correct": null,
      "trial_index": 93,
      "plugin_version": "2.1.0",
      "time_elapsed": 620401,
      "prolific_pid": null,
      "study_id": null,
      "session_id": null
    },
    {
      "trial_type": "html-keyboard-response",
      "participant_id": "P_1751641494221_62q43oywu",
      "questionId": 22,
      "questionSource": "AARC",
      "questionType": "likert",
      "is_attention_check": false,
      "correct_answer": null,
      "rt": 624982.899999857,
      "response": 2,
      "question_id": 22,
      "question_source": "AARC",
      "question_type": "likert",
      "question_response": {
        "Q22": 3
      },
      "is_correct": null,
      "trial_index": 94,
      "plugin_version": "2.1.0",
      "time_elapsed": 622098,
      "prolific_pid": null,
      "study_id": null,
      "session_id": null
    },
    {
      "trial_type": "html-keyboard-response",
      "participant_id": "P_1751641494221_62q43oywu",
      "questionId": 23,
      "questionSource": "AARC",
      "questionType": "likert",
      "is_attention_check": false,
      "correct_answer": null,
      "rt": 627061.0999999046,
      "response": 2,
      "question_id": 23,
      "question_source": "AARC",
      "question_type": "likert",
      "question_response": {
        "Q23": 3
      },
      "is_correct": null,
      "trial_index": 95,
      "plugin_version": "2.1.0",
      "time_elapsed": 624176,
      "prolific_pid": null,
      "study_id": null,
      "session_id": null
    },
    {
      "trial_type": "html-keyboard-response",
      "participant_id": "P_1751641494221_62q43oywu",
      "questionId": 24,
      "questionSource": "AARC",
      "questionType": "likert",
      "is_attention_check": false,
      "correct_answer": null,
      "rt": 628176.7999999523,
      "response": 2,
      "question_id": 24,
      "question_source": "AARC",
      "question_type": "likert",
      "question_response": {
        "Q24": 3
      },
      "is_correct": null,
      "trial_index": 96,
      "plugin_version": "2.1.0",
      "time_elapsed": 625292,
      "prolific_pid": null,
      "study_id": null,
      "session_id": null
    },
    {
      "trial_type": "html-keyboard-response",
      "participant_id": "P_1751641494221_62q43oywu",
      "questionId": 25,
      "questionSource": "AARC",
      "questionType": "likert",
      "is_attention_check": false,
      "correct_answer": null,
      "rt": 629251,
      "response": 2,
      "question_id": 25,
      "question_source": "AARC",
      "question_type": "likert",
      "question_response": {
        "Q25": 3
      },
      "is_correct": null,
      "trial_index": 97,
      "plugin_version": "2.1.0",
      "time_elapsed": 626366,
      "prolific_pid": null,
      "study_id": null,
      "session_id": null
    },
    {
      "trial_type": "html-keyboard-response",
      "participant_id": "P_1751641494221_62q43oywu",
      "questionId": 26,
      "questionSource": "AARC",
      "questionType": "likert",
      "is_attention_check": false,
      "correct_answer": null,
      "rt": 630410.7999999523,
      "response": 2,
      "question_id": 26,
      "question_source": "AARC",
      "question_type": "likert",
      "question_response": {
        "Q26": 3
      },
      "is_correct": null,
      "trial_index": 98,
      "plugin_version": "2.1.0",
      "time_elapsed": 627526,
      "prolific_pid": null,
      "study_id": null,
      "session_id": null
    },
    {
      "trial_type": "html-keyboard-response",
      "participant_id": "P_1751641494221_62q43oywu",
      "questionId": 27,
      "questionSource": "AARC",
      "questionType": "likert",
      "is_attention_check": false,
      "correct_answer": null,
      "rt": 631742.5999999046,
      "response": 2,
      "question_id": 27,
      "question_source": "AARC",
      "question_type": "likert",
      "question_response": {
        "Q27": 3
      },
      "is_correct": null,
      "trial_index": 99,
      "plugin_version": "2.1.0",
      "time_elapsed": 628858,
      "prolific_pid": null,
      "study_id": null,
      "session_id": null
    },
    {
      "trial_type": "html-keyboard-response",
      "participant_id": "P_1751641494221_62q43oywu",
      "questionId": "attention_check_2",
      "questionSource": "ATTENTION_CHECK",
      "questionType": "likert",
      "is_attention_check": true,
      "correct_answer": 2,
      "rt": 633730.6999998093,
      "response": 1,
      "question_id": "attention_check_2",
      "question_source": "ATTENTION_CHECK",
      "question_type": "likert",
      "question_response": {
        "Qattention_check_2": 2
      },
      "is_correct": true,
      "trial_index": 100,
      "plugin_version": "2.1.0",
      "time_elapsed": 630846,
      "prolific_pid": null,
      "study_id": null,
      "session_id": null
    },
    {
      "trial_type": "html-keyboard-response",
      "participant_id": "P_1751641494221_62q43oywu",
      "questionId": 28,
      "questionSource": "AARC",
      "questionType": "likert",
      "is_attention_check": false,
      "correct_answer": null,
      "rt": 634753.2999999523,
      "response": 2,
      "question_id": 28,
      "question_source": "AARC",
      "question_type": "likert",
      "question_response": {
        "Q28": 3
      },
      "is_correct": null,
      "trial_index": 101,
      "plugin_version": "2.1.0",
      "time_elapsed": 631868,
      "prolific_pid": null,
      "study_id": null,
      "session_id": null
    },
    {
      "trial_type": "html-keyboard-response",
      "participant_id": "P_1751641494221_62q43oywu",
      "questionId": 29,
      "questionSource": "DEM",
      "questionType": "text",
      "rt": 641963.5,
      "response": "22",
      "question_id": 29,
      "question_source": "DEM",
      "question_type": "text",
      "trial_index": 103,
      "plugin_version": "2.1.0",
      "time_elapsed": 639079,
      "prolific_pid": null,
      "study_id": null,
      "session_id": null
    },
    {
      "trial_type": "html-keyboard-response",
      "participant_id": "P_1751641494221_62q43oywu",
      "questionId": 34,
      "questionSource": "DEM",
      "questionType": "option",
      "is_attention_check": false,
      "correct_answer": null,
      "rt": 643667.399999857,
      "response": 2,
      "question_id": 34,
      "question_source": "DEM",
      "question_type": "option",
      "question_response": {
        "Q34": "I don't want to say"
      },
      "is_correct": null,
      "trial_index": 104,
      "plugin_version": "2.1.0",
      "time_elapsed": 640782,
      "prolific_pid": null,
      "study_id": null,
      "session_id": null
    },
    {
      "trial_type": "html-keyboard-response",
      "participant_id": "P_1751641494221_62q43oywu",
      "questionId": 30,
      "questionSource": "DEM",
      "questionType": "option",
      "is_attention_check": false,
      "correct_answer": null,
      "rt": 645270,
      "response": 3,
      "question_id": 30,
      "question_source": "DEM",
      "question_type": "option",
      "question_response": {
        "Q30": "Bachelor's degree or above"
      },
      "is_correct": null,
      "trial_index": 105,
      "plugin_version": "2.1.0",
      "time_elapsed": 642385,
      "prolific_pid": null,
      "study_id": null,
      "session_id": null
    },
    {
      "trial_type": "html-keyboard-response",
      "participant_id": "P_1751641494221_62q43oywu",
      "questionId": 31,
      "questionSource": "DEM",
      "questionType": "option",
      "is_attention_check": false,
      "correct_answer": null,
      "rt": 647126.7999999523,
      "response": 4,
      "question_id": 31,
      "question_source": "DEM",
      "question_type": "option",
      "question_response": {
        "Q31": "Excellent"
      },
      "is_correct": null,
      "trial_index": 106,
      "plugin_version": "2.1.0",
      "time_elapsed": 644242,
      "prolific_pid": null,
      "study_id": null,
      "session_id": null
    },
    {
      "trial_type": "html-keyboard-response",
      "participant_id": "P_1751641494221_62q43oywu",
      "questionId": 32,
      "questionSource": "DEM",
      "questionType": "text",
      "rt": 650071.1999998093,
      "response": "23",
      "question_id": 32,
      "question_source": "DEM",
      "question_type": "text",
      "trial_index": 107,
      "plugin_version": "2.1.0",
      "time_elapsed": 647186,
      "prolific_pid": null,
      "study_id": null,
      "session_id": null
    },
    {
      "trial_type": "html-keyboard-response",
      "participant_id": "P_1751641494221_62q43oywu",
      "questionId": 33,
      "questionSource": "DEM",
      "questionType": "likert",
      "is_attention_check": false,
      "correct_answer": null,
      "rt": 653061.5999999046,
      "response": 3,
      "question_id": 33,
      "question_source": "DEM",
      "question_type": "likert",
      "question_response": {
        "Q33": 4
      },
      "is_correct": null,
      "trial_index": 108,
      "plugin_version": "2.1.0",
      "time_elapsed": 650177,
      "prolific_pid": null,
      "study_id": null,
      "session_id": null
    }
  ],
  "completed_levels": {
    "tutorial": [
      0,
      1
    ],
    "journey": [
      0,
      1,
      2,
      3,
      4,
      5
    ]
  },
  "unlocked_levels": {
    "tutorial": 2,
    "journey": 6
  },
  "player_feedback_data": []
}